text,thisN,thisTrialN,thisRepN,key_resp_inst.keys,key_resp_inst.rt,key_resp_inst.duration,go_image,stop_image,corr_resp,is_stop,key_resp.keys,key_resp.corr,key_resp.rt,key_resp.duration,Trial_loop.thisRepN,Trial_loop.thisTrialN,Trial_loop.thisN,Trial_loop.thisIndex,practice_trial_loop.thisRepN,practice_trial_loop.thisTrialN,practice_trial_loop.thisN,practice_trial_loop.thisIndex,exp_trial_1.thisRepN,exp_trial_1.thisTrialN,exp_trial_1.thisN,exp_trial_1.thisIndex,exp_trials_2.thisRepN,exp_trials_2.thisTrialN,exp_trials_2.thisN,exp_trials_2.thisIndex,exp_trials_3.thisRepN,exp_trials_3.thisTrialN,exp_trials_3.thisN,exp_trials_3.thisIndex,exp_trials_4.thisRepN,exp_trials_4.thisTrialN,exp_trials_4.thisN,exp_trials_4.thisIndex,thisRow.t,notes,Welcome.started,Welcome_text.started,Welcome_text.stopped,Welcome.stopped,Instruction.started,Inst_text.started,key_resp_inst.started,Instruction.stopped,Trial_loop.key_resp_inst.keys,Trial_loop.key_resp_inst.rt,Trial_loop.key_resp_inst.duration,fixation.started,image.started,fixation.stopped,Stimulus.started,go_arrow.started,key_resp.started,stop_arrow.started,Stimulus.stopped,practice_trial_loop.key_resp.keys,practice_trial_loop.key_resp.corr,practice_trial_loop.key_resp.rt,practice_trial_loop.key_resp.duration,go_rt,stop_success,SSD,Feedback.started,fdback_text.started,fdback_text.stopped,Feedback.stopped,image.stopped,go_arrow.stopped,key_resp.stopped,stop_arrow.stopped,block_feedback.started,fb_text.started,key_resp_4.started,block_feedback.stopped,key_resp_4.keys,key_resp_4.rt,key_resp_4.duration,exp_trial_1.key_resp.keys,exp_trial_1.key_resp.corr,exp_trial_1.key_resp.rt,exp_trial_1.key_resp.duration,exp_trials_2.key_resp.keys,exp_trials_2.key_resp.corr,exp_trials_2.key_resp.rt,exp_trials_2.key_resp.duration,exp_trials_3.key_resp.keys,exp_trials_3.key_resp.corr,exp_trials_3.key_resp.rt,exp_trials_3.key_resp.duration,exp_trials_4.key_resp.keys,exp_trials_4.key_resp.corr,exp_trials_4.key_resp.rt,exp_trials_4.key_resp.duration,Thank_you.started,thankyou_text.started,Thank_you.stopped,participant,Age,Gender,session,date,expName,psychopyVersion,frameRate,expStart
,,,,,,,,,,,,,,,,,,,,,,,,,,,,,,,,,,,,,,,,,0.0028613,0.0081849,3.0453071,2.998796,,,,,,,,,,,,,,,,,,,,,,,,,,,,,,,,,,,,,,,,,,,,,,,,,,,,,,,,,P001,26,female,1,2026-01-18_16h28.01.002,SST2,2024.02.04,60.00960154,2026-01-18 16h28.23.321095 +0530
"Your main task is to respond to white arrows (with a black border) that appear on the screen.

Press the LEFT ARROW KEY with the right index finger when you see a LEFT ARROW and press the RIGHT ARROW KEY with the right ring finger when you see a RIGHT ARROW.

Thus, left arrow = left key and right arrow = right key. 
Press SPACEBAR"" to continue""",0,0,0,space,1.0655047,None,,,,,,,,,0,0,0,0,,,,,,,,,,,,,,,,,,,,,3.0453071,,,,,,3.0402388,3.0453071,3.0453071,4.3900616,space,1.0655047,None,,,,,,,,,,,,,,,,,,,,,,,,,,,,,,,,,,,,,,,,,,,,,,,,,,P001,26,female,1,2026-01-18_16h28.01.002,SST2,2024.02.04,60.00960154,2026-01-18 16h28.23.321095 +0530
"However, on some trials (stop-signal trials) the arrows will turn red after a variable delay. You have to stop your response when this happens.

On approximately half of the stop-signal trials, the red stop signal will appear soon and you will notice that it will be easy to stop your response.

On the other half of the trials, the red stop signals will appear late and it will become very difficult or even impossible to stop your response.

Press SPACEBAR"" to continue""",1,1,0,space,0.9562198,None,,,,,,,,,0,1,1,1,,,,,,,,,,,,,,,,,,,,,4.417567,,,,,,4.4131794,4.417567,4.417567,5.3822724,space,0.9562198,None,,,,,,,,,,,,,,,,,,,,,,,,,,,,,,,,,,,,,,,,,,,,,,,,,,P001,26,female,1,2026-01-18_16h28.01.002,SST2,2024.02.04,60.00960154,2026-01-18 16h28.23.321095 +0530
"Nevertheless, it is really important that you do not wait for the stop signal to occur and that you respond as quickly and as accurately as possible to the white arrows.

After all, if you start waiting for the red stop signals, then the program will delay their presentation. This will result in long reaction times.

We will start with a short practice block in which you will receive immediate feedback. You will no longer receive immediate feedback in the experimental phase.

Press SPACEBAR"" to continue""",2,2,0,space,0.7215362,None,,,,,,,,,0,2,2,2,,,,,,,,,,,,,,,,,,,,,5.4143889,,,,,,5.4096557,5.4143889,5.4143889,6.1489316,space,0.7215362,None,,,,,,,,,,,,,,,,,,,,,,,,,,,,,,,,,,,,,,,,,,,,,,,,,,P001,26,female,1,2026-01-18_16h28.01.002,SST2,2024.02.04,60.00960154,2026-01-18 16h28.23.321095 +0530
"However, at the end of each experimental block, there will be a 15 second break. During this break, we will show you some information about your mean performance in the previous block.

The experiment consists of 1 practice block and 4 experimental blocks

Press SPACEBAR"" to begin the experiment""",3,3,0,space,1.0499185,None,,,,,,,,,0,3,3,3,,,,,,,,,,,,,,,,,,,,,6.1727132,,,,,,6.1686525,6.1727132,6.1727132,7.2321139,space,1.0499185,None,,,,,,,,,,,,,,,,,,,,,,,,,,,,,,,,,,,,,,,,,,,,,,,,,,P001,26,female,1,2026-01-18_16h28.01.002,SST2,2024.02.04,60.00960154,2026-01-18 16h28.23.321095 +0530
,0,0,0,,,,images/go_right.png,images/stop_right.png,None,1,right,0,0.5438014,None,,,,,0,0,0,7,,,,,,,,,,,,,,,,,7.334708,,,,,,,,,,,,,7.2674532,7.334708,7.4977656,7.5137004,7.5207006,7.5207006,7.6843105,8.0681486,right,0,0.5438014,None,None,0,0.15,8.0734378,8.0805452,8.8308431,8.8143875,,,,,,,,,,,,,,,,,,,,,,,,,,,,,,,P001,26,female,1,2026-01-18_16h28.01.002,SST2,2024.02.04,60.00960154,2026-01-18 16h28.23.321095 +0530
,1,1,0,,,,images/go_right.png,images/stop_right.png,right,0,right,1,0.3108,None,,,,,0,1,1,4,,,,,,,,,,,,,,,,,8.8308431,,,,,,,,,,,,,8.8145622,8.8308431,9.0647012,9.1057458,9.1111224,9.1111224,9.2326072,9.4332114,right,1,0.3108,None,0.3108,None,0.15,9.434926,9.4468729,10.1971821,10.1808122,9.1111224,,,,,,,,,,,,,,,,,,,,,,,,,,,,,,P001,26,female,1,2026-01-18_16h28.01.002,SST2,2024.02.04,60.00960154,2026-01-18 16h28.23.321095 +0530
,2,2,0,,,,images/go_right.png,images/stop_right.png,right,0,right,1,0.3575738,None,,,,,0,2,2,5,,,,,,,,,,,,,,,,,10.1971821,,,,,,,,,,,,,10.1809939,10.1971821,10.4312379,10.4470717,10.4523237,10.4523237,10.5990524,10.8164526,right,1,0.3575738,None,0.3575738,None,0.15,10.8165154,10.8302551,11.5804948,11.564087,10.4523237,,,,,,,,,,,,,,,,,,,,,,,,,,,,,,P001,26,female,1,2026-01-18_16h28.01.002,SST2,2024.02.04,60.00960154,2026-01-18 16h28.23.321095 +0530
,3,3,0,,,,images/go_left.png,images/stop_left.png,left,0,left,1,0.3565505,None,,,,,0,3,3,0,,,,,,,,,,,,,,,,,11.5804948,,,,,,,,,,,,,11.5642563,11.5804948,11.8144756,11.8501483,11.855451,11.855451,11.9822724,12.2161692,left,1,0.3565505,None,0.3565505,None,0.15,12.2162323,12.2300215,12.9803594,12.9638855,11.855451,,,,,,,,,,,,,,,,,,,,,,,,,,,,,,P001,26,female,1,2026-01-18_16h28.01.002,SST2,2024.02.04,60.00960154,2026-01-18 16h28.23.321095 +0530
,4,4,0,,,,images/go_left.png,images/stop_left.png,left,0,left,1,0.367886,None,,,,,0,4,4,1,,,,,,,,,,,,,,,,,12.9803594,,,,,,,,,,,,,12.9640038,12.9803594,13.2142002,13.2293119,13.2345179,13.2345179,13.3821336,13.6161084,left,1,0.367886,None,0.367886,None,0.15,13.616186,13.6298901,14.3801671,14.3636974,13.2345179,,,,,,,,,,,,,,,,,,,,,,,,,,,,,,P001,26,female,1,2026-01-18_16h28.01.002,SST2,2024.02.04,60.00960154,2026-01-18 16h28.23.321095 +0530
,5,5,0,,,,images/go_left.png,images/stop_left.png,left,0,left,1,0.4003179,None,,,,,0,5,5,2,,,,,,,,,,,,,,,,,14.3801671,,,,,,,,,,,,,14.3638349,14.3801671,14.6139588,14.6270564,14.6322051,14.6322051,14.7819728,15.0491523,left,1,0.4003179,None,0.4003179,None,0.15,15.0492167,15.0630151,15.8132673,15.7966003,14.6322051,,,,,,,,,,,,,,,,,,,,,,,,,,,,,,P001,26,female,1,2026-01-18_16h28.01.002,SST2,2024.02.04,60.00960154,2026-01-18 16h28.23.321095 +0530
,6,6,0,,,,images/go_right.png,images/stop_right.png,right,0,right,1,0.3634326,None,,,,,0,6,6,6,,,,,,,,,,,,,,,,,15.8132673,,,,,,,,,,,,,15.7967166,15.8132673,16.0469803,16.0774822,16.0826801,16.0826801,16.215103,16.4489086,right,1,0.3634326,None,0.3634326,None,0.15,16.4489759,16.4628436,17.2131447,17.1966322,16.0826801,,,,,,,,,,,,,,,,,,,,,,,,,,,,,,P001,26,female,1,2026-01-18_16h28.01.002,SST2,2024.02.04,60.00960154,2026-01-18 16h28.23.321095 +0530
,7,7,0,,,,images/go_left.png,images/stop_left.png,None,1,None,1,,,,,,,0,7,7,3,,,,,,,,,,,,,,,,,17.2131447,,,,,,,,,,,,,17.1968369,17.2131447,17.4468366,17.4596262,17.4650918,17.4650918,17.616049,18.8646587,None,1,,,None,1,0.2,18.8647698,18.8791905,19.6296446,19.6130196,17.4650918,18.7141536,18.7141536,18.8791905,,,,,,,,,,,,,,,,,,,,,,,,,,,P001,26,female,1,2026-01-18_16h28.01.002,SST2,2024.02.04,60.00960154,2026-01-18 16h28.23.321095 +0530
,8,0,1,,,,images/go_right.png,images/stop_right.png,right,0,right,1,0.4862568,None,,,,,1,0,8,4,,,,,,,,,,,,,,,,,19.6296446,,,,,,,,,,,,,19.6131387,19.6296446,19.8633118,19.8772055,19.8825058,19.8825058,20.0645829,20.3820907,right,1,0.4862568,None,0.4862568,None,0.2,20.3821829,20.3955785,21.1458006,21.1295188,19.8825058,,,,,,,,,,,,,,,,,,,,,,,,,,,,,,P001,26,female,1,2026-01-18_16h28.01.002,SST2,2024.02.04,60.00960154,2026-01-18 16h28.23.321095 +0530
,9,1,1,,,,images/go_left.png,images/stop_left.png,left,0,left,1,0.3381161,None,,,,,1,1,9,0,,,,,,,,,,,,,,,,,21.1458006,,,,,,,,,,,,,21.1296887,21.1458006,21.3798403,21.393157,21.3983175,21.3983175,21.5975487,21.748267,left,1,0.3381161,None,0.3381161,None,0.2,21.7483431,21.7622079,22.512444,22.495894,21.3983175,,,,,,,,,,,,,,,,,,,,,,,,,,,,,,P001,26,female,1,2026-01-18_16h28.01.002,SST2,2024.02.04,60.00960154,2026-01-18 16h28.23.321095 +0530
,10,2,1,,,,images/go_left.png,images/stop_left.png,None,1,None,1,,,,,,,1,2,10,3,,,,,,,,,,,,,,,,,22.512444,,,,,,,,,,,,,22.4960151,22.512444,22.74615,22.7571664,22.7642121,22.7642121,22.9653481,24.2139562,None,1,,,None,1,0.25,24.214066,24.228479,24.9788787,24.9623418,22.7642121,24.0134467,24.0134467,24.228479,,,,,,,,,,,,,,,,,,,,,,,,,,,P001,26,female,1,2026-01-18_16h28.01.002,SST2,2024.02.04,60.00960154,2026-01-18 16h28.23.321095 +0530
,11,3,1,,,,images/go_right.png,images/stop_right.png,right,0,right,1,0.3645784,None,,,,,1,3,11,6,,,,,,,,,,,,,,,,,24.9788787,,,,,,,,,,,,,24.9624553,24.9788787,25.2127202,25.2249025,25.230681,25.230681,25.4640375,25.5977993,right,1,0.3645784,None,0.3645784,None,0.25,25.5978621,25.6117195,26.3621055,26.3453735,25.230681,,,,,,,,,,,,,,,,,,,,,,,,,,,,,,P001,26,female,1,2026-01-18_16h28.01.002,SST2,2024.02.04,60.00960154,2026-01-18 16h28.23.321095 +0530
,12,4,1,,,,images/go_left.png,images/stop_left.png,left,0,left,1,0.457639,None,,,,,1,4,12,1,,,,,,,,,,,,,,,,,26.3621055,,,,,,,,,,,,,26.3454893,26.3621055,26.595715,26.6076919,26.6138029,26.6138029,26.8638691,27.0811599,left,1,0.457639,None,0.457639,None,0.25,27.0812224,27.0946813,27.8452384,27.8286935,26.6138029,,,,,,,,,,,,,,,,,,,,,,,,,,,,,,P001,26,female,1,2026-01-18_16h28.01.002,SST2,2024.02.04,60.00960154,2026-01-18 16h28.23.321095 +0530
,13,5,1,,,,images/go_left.png,images/stop_left.png,left,0,left,1,0.3681186,None,,,,,1,5,13,2,,,,,,,,,,,,,,,,,27.8452384,,,,,,,,,,,,,27.8288255,27.8452384,28.0791189,28.0904905,28.0968455,28.0968455,28.3470032,28.4809999,left,1,0.3681186,None,0.3681186,None,0.25,28.4810643,28.4944749,29.2448171,29.2284292,28.0968455,,,,,,,,,,,,,,,,,,,,,,,,,,,,,,P001,26,female,1,2026-01-18_16h28.01.002,SST2,2024.02.04,60.00960154,2026-01-18 16h28.23.321095 +0530
,14,6,1,,,,images/go_right.png,images/stop_right.png,None,1,right,0,0.4001573,None,,,,,1,6,14,7,,,,,,,,,,,,,,,,,29.2448171,,,,,,,,,,,,,29.2285434,29.2448171,29.4788032,29.4898255,29.4965446,29.4965446,29.7478767,29.8984221,right,0,0.4001573,None,None,0,0.2,29.9020215,29.9111618,30.6615774,30.6450631,29.4965446,,,,,,,,,,,,,,,,,,,,,,,,,,,,,,P001,26,female,1,2026-01-18_16h28.01.002,SST2,2024.02.04,60.00960154,2026-01-18 16h28.23.321095 +0530
,15,7,1,,,,images/go_right.png,images/stop_right.png,right,0,right,1,0.351677,None,,,,,1,7,15,5,,,,,,,,,,,,,,,,,30.6615774,,,,,,,,,,,,,30.6451827,30.6615774,30.8951816,30.9067001,30.9133245,30.9133245,31.1133027,31.280525,right,1,0.351677,None,0.351677,None,0.2,31.2824364,31.2941671,32.044589,32.0281599,30.9133245,,,,,,,,,,,,,,,,,,,,,,,,,,,,,,P001,26,female,1,2026-01-18_16h28.01.002,SST2,2024.02.04,60.00960154,2026-01-18 16h28.23.321095 +0530
,16,0,2,,,,images/go_right.png,images/stop_right.png,right,0,right,1,0.3958796,None,,,,,2,0,16,5,,,,,,,,,,,,,,,,,32.044589,,,,,,,,,,,,,32.028275,32.044589,32.2783782,32.2894504,32.2964253,32.2964253,32.4962949,32.6971111,right,1,0.3958796,None,0.3958796,None,0.2,32.6971862,32.7108701,33.4611282,33.4444836,32.2964253,,,,,,,,,,,,,,,,,,,,,,,,,,,,,,P001,26,female,1,2026-01-18_16h28.01.002,SST2,2024.02.04,60.00960154,2026-01-18 16h28.23.321095 +0530
,17,1,2,,,,images/go_right.png,images/stop_right.png,right,0,right,1,0.3773956,None,,,,,2,1,17,6,,,,,,,,,,,,,,,,,33.4611282,,,,,,,,,,,,,33.4446004,33.4611282,33.6948754,33.7068594,33.7128805,33.7128805,33.9129552,34.096753,right,1,0.3773956,None,0.3773956,None,0.2,34.0968194,34.1107032,34.8610126,34.8445829,33.7128805,,,,,,,,,,,,,,,,,,,,,,,,,,,,,,P001,26,female,1,2026-01-18_16h28.01.002,SST2,2024.02.04,60.00960154,2026-01-18 16h28.23.321095 +0530
,18,2,2,,,,images/go_left.png,images/stop_left.png,None,1,None,1,,,,,,,2,2,18,3,,,,,,,,,,,,,,,,,34.8610126,,,,,,,,,,,,,34.8447014,34.8610126,35.0946779,35.1093335,35.1147818,35.1147818,35.3138937,36.562689,None,1,,,None,1,0.25,36.5628007,36.5770755,37.3274045,37.3108299,35.1147818,36.3785771,36.3785771,36.5770755,,,,,,,,,,,,,,,,,,,,,,,,,,,P001,26,female,1,2026-01-18_16h28.01.002,SST2,2024.02.04,60.00960154,2026-01-18 16h28.23.321095 +0530
,19,3,2,,,,images/go_left.png,images/stop_left.png,left,0,left,1,0.3831081,None,,,,,2,3,19,1,,,,,,,,,,,,,,,,,37.3274045,,,,,,,,,,,,,37.3109454,37.3274045,37.5611819,37.5740968,37.5794835,37.5794835,37.8289828,37.9795765,left,1,0.3831081,None,0.3831081,None,0.25,37.9796429,37.9932969,38.7436843,38.7271718,37.5794835,,,,,,,,,,,,,,,,,,,,,,,,,,,,,,P001,26,female,1,2026-01-18_16h28.01.002,SST2,2024.02.04,60.00960154,2026-01-18 16h28.23.321095 +0530
,20,4,2,,,,images/go_left.png,images/stop_left.png,left,0,left,1,0.361271,None,,,,,2,4,20,0,,,,,,,,,,,,,,,,,38.7436843,,,,,,,,,,,,,38.7272997,38.7436843,38.9776299,38.9894626,38.9954369,38.9954369,39.2456859,39.3629306,left,1,0.361271,None,0.361271,None,0.25,39.3629958,39.3766582,40.1270154,40.1104507,38.9954369,,,,,,,,,,,,,,,,,,,,,,,,,,,,,,P001,26,female,1,2026-01-18_16h28.01.002,SST2,2024.02.04,60.00960154,2026-01-18 16h28.23.321095 +0530
,21,5,2,,,,images/go_right.png,images/stop_right.png,right,0,right,1,0.3693395,None,,,,,2,5,21,4,,,,,,,,,,,,,,,,,40.1270154,,,,,,,,,,,,,40.1105882,40.1270154,40.3608411,40.3732009,40.3787037,40.3787037,40.6287189,40.7629853,right,1,0.3693395,None,0.3693395,None,0.25,40.7630639,40.7764902,41.526838,41.5102125,40.3787037,,,,,,,,,,,,,,,,,,,,,,,,,,,,,,P001,26,female,1,2026-01-18_16h28.01.002,SST2,2024.02.04,60.00960154,2026-01-18 16h28.23.321095 +0530
,22,6,2,,,,images/go_left.png,images/stop_left.png,left,0,left,1,0.4177021,None,,,,,2,6,22,2,,,,,,,,,,,,,,,,,41.526838,,,,,,,,,,,,,41.5103389,41.526838,41.7606151,41.7728121,41.7784715,41.7784715,42.0285225,42.2126829,left,1,0.4177021,None,0.4177021,None,0.25,42.2127476,42.2265096,42.9765823,42.9601658,41.7784715,,,,,,,,,,,,,,,,,,,,,,,,,,,,,,P001,26,female,1,2026-01-18_16h28.01.002,SST2,2024.02.04,60.00960154,2026-01-18 16h28.23.321095 +0530
,23,7,2,,,,images/go_right.png,images/stop_right.png,None,1,right,0,0.3570473,None,,,,,2,7,23,7,,,,,,,,,,,,,,,,,42.9765823,,,,,,,,,,,,,42.9603074,42.9765823,43.2105389,43.2226466,43.2282563,43.2282563,43.479578,43.5968392,right,0,0.3570473,None,None,0,0.2,43.5990421,43.6094958,44.3597783,44.3431841,43.2282563,,,,,,,,,,,,,,,,,,,,,,,,,,,,,,P001,26,female,1,2026-01-18_16h28.01.002,SST2,2024.02.04,60.00960154,2026-01-18 16h28.23.321095 +0530
,24,0,3,,,,images/go_right.png,images/stop_right.png,right,0,right,1,0.3659108,None,,,,,3,0,24,4,,,,,,,,,,,,,,,,,44.3597783,,,,,,,,,,,,,44.3432974,44.3597783,44.5935855,44.6056831,44.6114985,44.6114985,44.8116525,44.9790824,right,1,0.3659108,None,0.3659108,None,0.2,44.9809111,44.9924291,45.7428194,45.7264786,44.6114985,,,,,,,,,,,,,,,,,,,,,,,,,,,,,,P001,26,female,1,2026-01-18_16h28.01.002,SST2,2024.02.04,60.00960154,2026-01-18 16h28.23.321095 +0530
,25,1,3,,,,images/go_left.png,images/stop_left.png,left,0,left,1,0.3851,None,,,,,3,1,25,0,,,,,,,,,,,,,,,,,45.7428194,,,,,,,,,,,,,45.7266064,45.7428194,45.9769052,45.9892393,45.9944492,45.9944492,46.1945441,46.3951422,left,1,0.3851,None,0.3851,None,0.2,46.3952062,46.4091876,47.1593196,47.1425242,45.9944492,,,,,,,,,,,,,,,,,,,,,,,,,,,,,,P001,26,female,1,2026-01-18_16h28.01.002,SST2,2024.02.04,60.00960154,2026-01-18 16h28.23.321095 +0530
,26,2,3,,,,images/go_right.png,images/stop_right.png,None,1,right,0,0.353551,None,,,,,3,2,26,7,,,,,,,,,,,,,,,,,47.1593196,,,,,,,,,,,,,47.1426383,47.1593196,47.3930427,47.409295,47.4145332,47.4145332,47.6122034,47.7799986,right,0,0.353551,None,None,0,0.15,47.7825859,47.7923187,48.5426257,48.5260047,47.4145332,,,,,,,,,,,,,,,,,,,,,,,,,,,,,,P001,26,female,1,2026-01-18_16h28.01.002,SST2,2024.02.04,60.00960154,2026-01-18 16h28.23.321095 +0530
,27,3,3,,,,images/go_right.png,images/stop_right.png,right,0,right,1,0.3063448,None,,,,,3,3,27,5,,,,,,,,,,,,,,,,,48.5426257,,,,,,,,,,,,,48.5261221,48.5426257,48.7764109,48.7884949,48.7943448,48.7943448,48.9443788,49.1117501,right,1,0.3063448,None,0.3063448,None,0.15,49.1139631,49.1253909,49.875766,49.8593184,48.7943448,,,,,,,,,,,,,,,,,,,,,,,,,,,,,,P001,26,female,1,2026-01-18_16h28.01.002,SST2,2024.02.04,60.00960154,2026-01-18 16h28.23.321095 +0530
,28,4,3,,,,images/go_left.png,images/stop_left.png,left,0,left,1,0.4255203,None,,,,,3,4,28,1,,,,,,,,,,,,,,,,,49.875766,,,,,,,,,,,,,49.8595352,49.875766,50.1095548,50.1215918,50.1274075,50.1274075,50.2775088,50.5615213,left,1,0.4255203,None,0.4255203,None,0.15,50.561586,50.5753026,51.3255344,51.3091224,50.1274075,,,,,,,,,,,,,,,,,,,,,,,,,,,,,,P001,26,female,1,2026-01-18_16h28.01.002,SST2,2024.02.04,60.00960154,2026-01-18 16h28.23.321095 +0530
,29,5,3,,,,images/go_left.png,images/stop_left.png,left,0,left,1,0.604022,None,,,,,3,5,29,2,,,,,,,,,,,,,,,,,51.3255344,,,,,,,,,,,,,51.3092403,51.3255344,51.5593415,51.5715513,51.5771995,51.5771995,51.7273523,52.1946209,left,1,0.604022,None,0.604022,None,0.15,52.1946885,52.2083828,52.9588315,52.941996,51.5771995,,,,,,,,,,,,,,,,,,,,,,,,,,,,,,P001,26,female,1,2026-01-18_16h28.01.002,SST2,2024.02.04,60.00960154,2026-01-18 16h28.23.321095 +0530
,30,6,3,,,,images/go_right.png,images/stop_right.png,right,0,right,1,0.3933301,None,,,,,3,6,30,6,,,,,,,,,,,,,,,,,52.9588315,,,,,,,,,,,,,52.9421121,52.9588315,53.1923671,53.204846,53.2110847,53.2110847,53.3604353,53.6110724,right,1,0.3933301,None,0.3933301,None,0.15,53.6111416,53.6249041,54.3752572,54.3587455,53.2110847,,,,,,,,,,,,,,,,,,,,,,,,,,,,,,P001,26,female,1,2026-01-18_16h28.01.002,SST2,2024.02.04,60.00960154,2026-01-18 16h28.23.321095 +0530
,31,7,3,,,,images/go_left.png,images/stop_left.png,None,1,None,1,,,,,,,3,7,31,3,,,,,,,,,,,,,,,,,54.3752572,,,,,,,,,,,,,54.3588715,54.3752572,54.6089877,54.621349,54.6269218,54.6269218,54.7781607,56.0266611,None,1,,,None,1,0.2,56.026773,56.0412191,56.7929773,56.775011,54.6269218,55.8761806,55.8761806,56.0412191,,,,,,,,,,,,,,,,,,,,,,,,,,,P001,26,female,1,2026-01-18_16h28.01.002,SST2,2024.02.04,60.00960154,2026-01-18 16h28.23.321095 +0530
,,,,,,,,,,,,,,,,,,,,,,,,,,,,,,,,,,,,,,,,,,,,,,,,,,,,,,,,,,,,,,,,,,,,,,,,,,,56.7891708,56.7929773,56.7929773,68.7905164,space,11.9811367,None,,,,,,,,,,,,,,,,,,,,P001,26,female,1,2026-01-18_16h28.01.002,SST2,2024.02.04,60.00960154,2026-01-18 16h28.23.321095 +0530
,0,0,0,,,,images/go_left.png,images/stop_left.png,None,1,None,1,,,,,,,,,,,0,0,0,3,,,,,,,,,,,,,68.814246,,,,,,,,,,,,,68.8108046,68.814246,69.0567321,69.0701363,69.0754133,69.0754133,69.24282,70.4915915,,,,,None,1,0.25,,,,,,70.3243625,70.3243625,70.5064936,,,,,,,,None,1,,,,,,,,,,,,,,,,,,P001,26,female,1,2026-01-18_16h28.01.002,SST2,2024.02.04,60.00960154,2026-01-18 16h28.23.321095 +0530
,1,1,0,,,,images/go_left.png,images/stop_left.png,left,0,left,1,0.3756185,None,,,,,,,,,0,1,1,1,,,,,,,,,,,,,70.5064936,,,,,,,,,,,,,70.4918247,70.5064936,70.740144,70.752128,70.7581474,70.7581474,70.9916358,71.1422609,,,,,0.3756185,None,0.25,,,,,70.7581474,,,,,,,,,,,left,1,0.3756185,None,,,,,,,,,,,,,,,,P001,26,female,1,2026-01-18_16h28.01.002,SST2,2024.02.04,60.00960154,2026-01-18 16h28.23.321095 +0530
,2,2,0,,,,images/go_right.png,images/stop_right.png,right,0,right,1,0.4119862,None,,,,,,,,,0,2,2,4,,,,,,,,,,,,,71.1563724,,,,,,,,,,,,,71.1424273,71.1563724,71.3902409,71.4033723,71.4087089,71.4087089,71.6581233,71.8256743,,,,,0.4119862,None,0.25,,,,,71.4087089,,,,,,,,,,,right,1,0.4119862,None,,,,,,,,,,,,,,,,P001,26,female,1,2026-01-18_16h28.01.002,SST2,2024.02.04,60.00960154,2026-01-18 16h28.23.321095 +0530
,3,3,0,,,,images/go_right.png,images/stop_right.png,right,0,right,1,0.3253727,None,,,,,,,,,0,3,3,6,,,,,,,,,,,,,71.8395687,,,,,,,,,,,,,71.8258487,71.8395687,72.0734567,72.0859555,72.0911416,72.0911416,72.3413468,72.4256861,,,,,0.3253727,None,0.25,,,,,72.0911416,,,,,,,,,,,right,1,0.3253727,None,,,,,,,,,,,,,,,,P001,26,female,1,2026-01-18_16h28.01.002,SST2,2024.02.04,60.00960154,2026-01-18 16h28.23.321095 +0530
,4,4,0,,,,images/go_left.png,images/stop_left.png,left,0,left,1,0.3457848,None,,,,,,,,,0,4,4,2,,,,,,,,,,,,,72.4395764,,,,,,,,,,,,,72.4258739,72.4395764,72.6734273,72.6861856,72.6913827,72.6913827,72.9413884,73.0422415,,,,,0.3457848,None,0.25,,,,,72.6913827,,,,,,,,,,,left,1,0.3457848,None,,,,,,,,,,,,,,,,P001,26,female,1,2026-01-18_16h28.01.002,SST2,2024.02.04,60.00960154,2026-01-18 16h28.23.321095 +0530
,5,5,0,,,,images/go_right.png,images/stop_right.png,right,0,right,1,0.3464197,None,,,,,,,,,0,5,5,5,,,,,,,,,,,,,73.0560936,,,,,,,,,,,,,73.0424115,73.0560936,73.2899894,73.3028142,73.3081874,73.3081874,73.557953,73.6586059,,,,,0.3464197,None,0.25,,,,,73.3081874,,,,,,,,,,,right,1,0.3464197,None,,,,,,,,,,,,,,,,P001,26,female,1,2026-01-18_16h28.01.002,SST2,2024.02.04,60.00960154,2026-01-18 16h28.23.321095 +0530
,6,6,0,,,,images/go_left.png,images/stop_left.png,left,0,left,1,0.3100952,None,,,,,,,,,0,6,6,0,,,,,,,,,,,,,73.6727517,,,,,,,,,,,,,73.6587492,73.6727517,73.9066445,73.9193739,73.9244724,73.9244724,74.1745225,74.2421284,,,,,0.3100952,None,0.25,,,,,73.9244724,,,,,,,,,,,left,1,0.3100952,None,,,,,,,,,,,,,,,,P001,26,female,1,2026-01-18_16h28.01.002,SST2,2024.02.04,60.00960154,2026-01-18 16h28.23.321095 +0530
,7,7,0,,,,images/go_right.png,images/stop_right.png,None,1,right,0,0.3274277,None,,,,,,,,,0,7,7,7,,,,,,,,,,,,,74.2561377,,,,,,,,,,,,,74.2422799,74.2561377,74.4896577,74.5078363,74.5133884,74.5133884,74.7588946,74.8428859,,,,,None,0,0.2,,,,,74.5133884,,,,,,,,,,,right,0,0.3274277,None,,,,,,,,,,,,,,,,P001,26,female,1,2026-01-18_16h28.01.002,SST2,2024.02.04,60.00960154,2026-01-18 16h28.23.321095 +0530
,8,0,1,,,,images/go_right.png,images/stop_right.png,right,0,right,1,0.3986456,None,,,,,,,,,1,0,8,5,,,,,,,,,,,,,74.8558218,,,,,,,,,,,,,74.8431541,74.8558218,75.0898328,75.10413,75.1093043,75.1093043,75.307666,75.5250733,,,,,0.3986456,None,0.2,,,,,75.1093043,,,,,,,,,,,right,1,0.3986456,None,,,,,,,,,,,,,,,,P001,26,female,1,2026-01-18_16h28.01.002,SST2,2024.02.04,60.00960154,2026-01-18 16h28.23.321095 +0530
,9,1,1,,,,images/go_left.png,images/stop_left.png,None,1,left,0,0.2967032,None,,,,,,,,,1,1,9,3,,,,,,,,,,,,,75.5391972,,,,,,,,,,,,,75.5252305,75.5391972,75.7730167,75.785081,75.7915013,75.7915013,75.9920598,76.0927705,,,,,None,0,0.15,,,,,75.7915013,,,,,,,,,,,left,0,0.2967032,None,,,,,,,,,,,,,,,,P001,26,female,1,2026-01-18_16h28.01.002,SST2,2024.02.04,60.00960154,2026-01-18 16h28.23.321095 +0530
,10,2,1,,,,images/go_left.png,images/stop_left.png,left,0,left,1,0.431694,None,,,,,,,,,1,2,10,0,,,,,,,,,,,,,76.1057408,,,,,,,,,,,,,76.0929555,76.1057408,76.3394791,76.3513684,76.357534,76.357534,76.5076078,76.7916383,,,,,0.431694,None,0.15,,,,,76.357534,,,,,,,,,,,left,1,0.431694,None,,,,,,,,,,,,,,,,P001,26,female,1,2026-01-18_16h28.01.002,SST2,2024.02.04,60.00960154,2026-01-18 16h28.23.321095 +0530
,11,3,1,,,,images/go_left.png,images/stop_left.png,left,0,left,1,0.3284476,None,,,,,,,,,1,3,11,1,,,,,,,,,,,,,76.805619,,,,,,,,,,,,,76.7917744,76.805619,77.0394988,77.0518944,77.0574061,77.0574061,77.2074984,77.3914724,,,,,0.3284476,None,0.15,,,,,77.0574061,,,,,,,,,,,left,1,0.3284476,None,,,,,,,,,,,,,,,,P001,26,female,1,2026-01-18_16h28.01.002,SST2,2024.02.04,60.00960154,2026-01-18 16h28.23.321095 +0530
,12,4,1,,,,images/go_right.png,images/stop_right.png,None,1,right,0,0.3245442,None,,,,,,,,,1,4,12,7,,,,,,,,,,,,,77.4056171,,,,,,,,,,,,,77.39164,77.4056171,77.6393327,77.6519179,77.6572957,77.6572957,77.8085338,77.9924551,,,,,None,0,0.1,,,,,77.6572957,,,,,,,,,,,right,0,0.3245442,None,,,,,,,,,,,,,,,,P001,26,female,1,2026-01-18_16h28.01.002,SST2,2024.02.04,60.00960154,2026-01-18 16h28.23.321095 +0530
,13,5,1,,,,images/go_right.png,images/stop_right.png,right,0,right,1,0.3817482,None,,,,,,,,,1,5,13,6,,,,,,,,,,,,,78.0056024,,,,,,,,,,,,,77.9926555,78.0056024,78.2392675,78.2517126,78.257278,78.257278,78.3573055,78.6416165,,,,,0.3817482,None,0.1,,,,,78.257278,,,,,,,,,,,right,1,0.3817482,None,,,,,,,,,,,,,,,,P001,26,female,1,2026-01-18_16h28.01.002,SST2,2024.02.04,60.00960154,2026-01-18 16h28.23.321095 +0530
,14,6,1,,,,images/go_left.png,images/stop_left.png,left,0,left,1,0.3569119,None,,,,,,,,,1,6,14,2,,,,,,,,,,,,,78.6555385,,,,,,,,,,,,,78.6417505,78.6555385,78.889252,78.9025394,78.9076583,78.9076583,79.0071724,79.274537,,,,,0.3569119,None,0.1,,,,,78.9076583,,,,,,,,,,,left,1,0.3569119,None,,,,,,,,,,,,,,,,P001,26,female,1,2026-01-18_16h28.01.002,SST2,2024.02.04,60.00960154,2026-01-18 16h28.23.321095 +0530
,15,7,1,,,,images/go_right.png,images/stop_right.png,right,0,right,1,0.2955385,None,,,,,,,,,1,7,15,4,,,,,,,,,,,,,79.2884814,,,,,,,,,,,,,79.2747289,79.2884814,79.5229047,79.5348679,79.5402868,79.5402868,79.6405023,79.8410755,,,,,0.2955385,None,0.1,,,,,79.5402868,,,,,,,,,,,right,1,0.2955385,None,,,,,,,,,,,,,,,,P001,26,female,1,2026-01-18_16h28.01.002,SST2,2024.02.04,60.00960154,2026-01-18 16h28.23.321095 +0530
,16,0,2,,,,images/go_left.png,images/stop_left.png,None,1,left,0,0.2947646,None,,,,,,,,,2,0,16,3,,,,,,,,,,,,,79.8553607,,,,,,,,,,,,,79.8412122,79.8553607,80.0891256,80.1008734,80.1070509,80.1070509,80.208146,80.4087612,,,,,None,0,0.05,,,,,80.1070509,,,,,,,,,,,left,0,0.2947646,None,,,,,,,,,,,,,,,,P001,26,female,1,2026-01-18_16h28.01.002,SST2,2024.02.04,60.00960154,2026-01-18 16h28.23.321095 +0530
,17,1,2,,,,images/go_left.png,images/stop_left.png,left,0,right,0,0.2554944,None,,,,,,,,,2,1,17,1,,,,,,,,,,,,,80.4218639,,,,,,,,,,,,,80.408983,80.4218639,80.6558934,80.6684748,80.6737705,80.6737705,80.7237045,80.9408441,,,,,None,None,0.05,,,,,80.6737705,,,,,,,,,,,right,0,0.2554944,None,,,,,,,,,,,,,,,,P001,26,female,1,2026-01-18_16h28.01.002,SST2,2024.02.04,60.00960154,2026-01-18 16h28.23.321095 +0530
,18,2,2,,,,images/go_right.png,images/stop_right.png,right,0,right,1,0.3569902,None,,,,,,,,,2,2,18,6,,,,,,,,,,,,,80.9552111,,,,,,,,,,,,,80.940981,80.9552111,81.1888929,81.2024381,81.2078422,81.2078422,81.2568744,81.5743271,,,,,0.3569902,None,0.05,,,,,81.2078422,,,,,,,,,,,right,1,0.3569902,None,,,,,,,,,,,,,,,,P001,26,female,1,2026-01-18_16h28.01.002,SST2,2024.02.04,60.00960154,2026-01-18 16h28.23.321095 +0530
,19,3,2,,,,images/go_right.png,images/stop_right.png,right,0,right,1,0.3655015,None,,,,,,,,,2,3,19,4,,,,,,,,,,,,,81.5884559,,,,,,,,,,,,,81.5744864,81.5884559,81.8222716,81.8349579,81.840397,81.840397,81.890064,82.2074354,,,,,0.3655015,None,0.05,,,,,81.840397,,,,,,,,,,,right,1,0.3655015,None,,,,,,,,,,,,,,,,P001,26,female,1,2026-01-18_16h28.01.002,SST2,2024.02.04,60.00960154,2026-01-18 16h28.23.321095 +0530
,20,4,2,,,,images/go_left.png,images/stop_left.png,left,0,left,1,0.2678454,None,,,,,,,,,2,4,20,0,,,,,,,,,,,,,82.2215752,,,,,,,,,,,,,82.2075874,82.2215752,82.4555534,82.467514,82.4732841,82.4732841,82.5233342,82.7573905,,,,,0.2678454,None,0.05,,,,,82.4732841,,,,,,,,,,,left,1,0.2678454,None,,,,,,,,,,,,,,,,P001,26,female,1,2026-01-18_16h28.01.002,SST2,2024.02.04,60.00960154,2026-01-18 16h28.23.321095 +0530
,21,5,2,,,,images/go_right.png,images/stop_right.png,right,0,right,1,0.32917,None,,,,,,,,,2,5,21,5,,,,,,,,,,,,,82.7715575,,,,,,,,,,,,,82.7575759,82.7715575,83.0054719,83.0178221,83.0233406,83.0233406,83.0733877,83.3572965,,,,,0.32917,None,0.05,,,,,83.0233406,,,,,,,,,,,right,1,0.32917,None,,,,,,,,,,,,,,,,P001,26,female,1,2026-01-18_16h28.01.002,SST2,2024.02.04,60.00960154,2026-01-18 16h28.23.321095 +0530
,22,6,2,,,,images/go_left.png,images/stop_left.png,left,0,left,1,0.3414149,None,,,,,,,,,2,6,22,2,,,,,,,,,,,,,83.3714931,,,,,,,,,,,,,83.3574459,83.3714931,83.6052945,83.616949,83.6231504,83.6231504,83.6733202,83.9737795,,,,,0.3414149,None,0.05,,,,,83.6231504,,,,,,,,,,,left,1,0.3414149,None,,,,,,,,,,,,,,,,P001,26,female,1,2026-01-18_16h28.01.002,SST2,2024.02.04,60.00960154,2026-01-18 16h28.23.321095 +0530
,23,7,2,,,,images/go_right.png,images/stop_right.png,None,1,right,0,0.510359,None,,,,,,,,,2,7,23,7,,,,,,,,,,,,,83.9880493,,,,,,,,,,,,,83.9739302,83.9880493,84.2218391,84.2335669,84.2397186,84.2397186,84.290927,84.7585684,,,,,None,0,0.05,,,,,84.2397186,,,,,,,,,,,right,0,0.510359,None,,,,,,,,,,,,,,,,P001,26,female,1,2026-01-18_16h28.01.002,SST2,2024.02.04,60.00960154,2026-01-18 16h28.23.321095 +0530
,24,0,3,,,,images/go_right.png,images/stop_right.png,right,0,left,0,0.2882501,None,,,,,,,,,3,0,24,5,,,,,,,,,,,,,84.7712775,,,,,,,,,,,,,84.7587546,84.7712775,85.005128,85.0177764,85.0229616,85.0229616,85.0731467,85.323832,,,,,None,None,0.05,,,,,85.0229616,,,,,,,,,,,left,0,0.2882501,None,,,,,,,,,,,,,,,,P001,26,female,1,2026-01-18_16h28.01.002,SST2,2024.02.04,60.00960154,2026-01-18 16h28.23.321095 +0530
,25,1,3,,,,images/go_left.png,images/stop_left.png,None,1,right,0,0.1541973,None,,,,,,,,,3,1,25,3,,,,,,,,,,,,,85.3378021,,,,,,,,,,,,,85.3240147,85.3378021,85.5718796,85.5846354,85.5900907,85.5900907,85.6408632,85.7582102,,,,,None,0,0.05,,,,,85.5900907,,,,,,,,,,,right,0,0.1541973,None,,,,,,,,,,,,,,,,P001,26,female,1,2026-01-18_16h28.01.002,SST2,2024.02.04,60.00960154,2026-01-18 16h28.23.321095 +0530
,26,2,3,,,,images/go_right.png,images/stop_right.png,right,0,right,1,0.3613884,None,,,,,,,,,3,2,26,4,,,,,,,,,,,,,85.77121,,,,,,,,,,,,,85.758391,85.77121,86.0049901,86.0170026,86.0228532,86.0228532,86.0729541,86.3901944,,,,,0.3613884,None,0.05,,,,,86.0228532,,,,,,,,,,,right,1,0.3613884,None,,,,,,,,,,,,,,,,P001,26,female,1,2026-01-18_16h28.01.002,SST2,2024.02.04,60.00960154,2026-01-18 16h28.23.321095 +0530
,27,3,3,,,,images/go_right.png,images/stop_right.png,None,1,right,0,0.3892144,None,,,,,,,,,3,3,27,7,,,,,,,,,,,,,86.4045174,,,,,,,,,,,,,86.3903767,86.4045174,86.6382174,86.6505226,86.6561772,86.6561772,86.7074431,87.0579173,,,,,None,0,0.05,,,,,86.6561772,,,,,,,,,,,right,0,0.3892144,None,,,,,,,,,,,,,,,,P001,26,female,1,2026-01-18_16h28.01.002,SST2,2024.02.04,60.00960154,2026-01-18 16h28.23.321095 +0530
,28,4,3,,,,images/go_left.png,images/stop_left.png,left,0,left,1,0.2130757,None,,,,,,,,,3,4,28,2,,,,,,,,,,,,,87.0709915,,,,,,,,,,,,,87.0581333,87.0709915,87.3047991,87.316827,87.3227863,87.3227863,87.3728022,87.5403445,,,,,0.2130757,None,0.05,,,,,87.3227863,,,,,,,,,,,left,1,0.2130757,None,,,,,,,,,,,,,,,,P001,26,female,1,2026-01-18_16h28.01.002,SST2,2024.02.04,60.00960154,2026-01-18 16h28.23.321095 +0530
,29,5,3,,,,images/go_right.png,images/stop_right.png,right,0,left,0,0.2457328,None,,,,,,,,,3,5,29,6,,,,,,,,,,,,,87.5542253,,,,,,,,,,,,,87.5404964,87.5542253,87.7880689,87.8007038,87.806196,87.806196,87.856085,88.0566876,,,,,None,None,0.05,,,,,87.806196,,,,,,,,,,,left,0,0.2457328,None,,,,,,,,,,,,,,,,P001,26,female,1,2026-01-18_16h28.01.002,SST2,2024.02.04,60.00960154,2026-01-18 16h28.23.321095 +0530
,30,6,3,,,,images/go_left.png,images/stop_left.png,left,0,right,0,0.0651275,None,,,,,,,,,3,6,30,1,,,,,,,,,,,,,88.0709192,,,,,,,,,,,,,88.0568425,88.0709192,88.3047907,88.3169016,88.3226506,88.3226506,88.3727444,88.3899737,,,,,None,None,0.05,,,,,88.3226506,,,,,,,,,,,right,0,0.0651275,None,,,,,,,,,,,,,,,,P001,26,female,1,2026-01-18_16h28.01.002,SST2,2024.02.04,60.00960154,2026-01-18 16h28.23.321095 +0530
,31,7,3,,,,images/go_left.png,images/stop_left.png,left,0,left,1,0.4728477,None,,,,,,,,,3,7,31,0,,,,,,,,,,,,,88.4041324,,,,,,,,,,,,,88.3901087,88.4041324,88.6380153,88.6498683,88.6558599,88.6558599,88.7060165,89.1401639,,,,,0.4728477,None,0.05,,,,,88.6558599,,,,,,,,,,,left,1,0.4728477,None,,,,,,,,,,,,,,,,P001,26,female,1,2026-01-18_16h28.01.002,SST2,2024.02.04,60.00960154,2026-01-18 16h28.23.321095 +0530
,32,0,4,,,,images/go_left.png,images/stop_left.png,left,0,left,1,0.3647106,None,,,,,,,,,4,0,32,0,,,,,,,,,,,,,89.1540862,,,,,,,,,,,,,89.1405102,89.1540862,89.3878733,89.4005598,89.4059723,89.4059723,89.455805,89.773358,,,,,0.3647106,None,0.05,,,,,89.4059723,,,,,,,,,,,left,1,0.3647106,None,,,,,,,,,,,,,,,,P001,26,female,1,2026-01-18_16h28.01.002,SST2,2024.02.04,60.00960154,2026-01-18 16h28.23.321095 +0530
,33,1,4,,,,images/go_left.png,images/stop_left.png,None,1,left,0,0.4769814,None,,,,,,,,,4,1,33,3,,,,,,,,,,,,,89.7873609,,,,,,,,,,,,,89.7735032,89.7873609,90.021163,90.034226,90.0396672,90.0396672,90.0902808,90.524092,,,,,None,0,0.05,,,,,90.0396672,,,,,,,,,,,left,0,0.4769814,None,,,,,,,,,,,,,,,,P001,26,female,1,2026-01-18_16h28.01.002,SST2,2024.02.04,60.00960154,2026-01-18 16h28.23.321095 +0530
,34,2,4,,,,images/go_left.png,images/stop_left.png,left,0,left,1,0.3940923,None,,,,,,,,,4,2,34,1,,,,,,,,,,,,,90.5370967,,,,,,,,,,,,,90.5243063,90.5370967,90.7712227,90.7835306,90.7889691,90.7889691,90.8390279,91.1897813,,,,,0.3940923,None,0.05,,,,,90.7889691,,,,,,,,,,,left,1,0.3940923,None,,,,,,,,,,,,,,,,P001,26,female,1,2026-01-18_16h28.01.002,SST2,2024.02.04,60.00960154,2026-01-18 16h28.23.321095 +0530
,35,3,4,,,,images/go_right.png,images/stop_right.png,right,0,left,0,0.2006565,None,,,,,,,,,4,3,35,5,,,,,,,,,,,,,91.2037472,,,,,,,,,,,,,91.1899636,91.2037472,91.4377079,91.4503942,91.4556577,91.4556577,91.505613,91.6729946,,,,,None,None,0.05,,,,,91.4556577,,,,,,,,,,,left,0,0.2006565,None,,,,,,,,,,,,,,,,P001,26,female,1,2026-01-18_16h28.01.002,SST2,2024.02.04,60.00960154,2026-01-18 16h28.23.321095 +0530
,36,4,4,,,,images/go_left.png,images/stop_left.png,left,0,right,0,0.0905609,None,,,,,,,,,4,4,36,2,,,,,,,,,,,,,91.6869652,,,,,,,,,,,,,91.6731475,91.6869652,91.9209005,91.9329585,91.9387577,91.9387577,91.9887606,92.039493,,,,,None,None,0.05,,,,,91.9387577,,,,,,,,,,,right,0,0.0905609,None,,,,,,,,,,,,,,,,P001,26,female,1,2026-01-18_16h28.01.002,SST2,2024.02.04,60.00960154,2026-01-18 16h28.23.321095 +0530
,37,5,4,,,,images/go_right.png,images/stop_right.png,right,0,right,1,0.4118245,None,,,,,,,,,4,5,37,6,,,,,,,,,,,,,92.0537831,,,,,,,,,,,,,92.0396355,92.0537831,92.287459,92.2992821,92.3054386,92.3054386,92.3556562,92.7228285,,,,,0.4118245,None,0.05,,,,,92.3054386,,,,,,,,,,,right,1,0.4118245,None,,,,,,,,,,,,,,,,P001,26,female,1,2026-01-18_16h28.01.002,SST2,2024.02.04,60.00960154,2026-01-18 16h28.23.321095 +0530
,38,6,4,,,,images/go_right.png,images/stop_right.png,right,0,right,1,0.3433992,None,,,,,,,,,4,6,38,4,,,,,,,,,,,,,92.7368197,,,,,,,,,,,,,92.7229697,92.7368197,92.9708592,92.9827029,92.9887046,92.9887046,93.038633,93.3396157,,,,,0.3433992,None,0.05,,,,,92.9887046,,,,,,,,,,,right,1,0.3433992,None,,,,,,,,,,,,,,,,P001,26,female,1,2026-01-18_16h28.01.002,SST2,2024.02.04,60.00960154,2026-01-18 16h28.23.321095 +0530
,39,7,4,,,,images/go_right.png,images/stop_right.png,None,1,right,0,0.8843557,None,,,,,,,,,4,7,39,7,,,,,,,,,,,,,93.3535544,,,,,,,,,,,,,93.339815,93.3535544,93.5874604,93.5998865,93.6054814,93.6054814,93.6565179,94.4907526,,,,,None,0,0.05,,,,,93.6054814,,,,,,,,,,,right,0,0.8843557,None,,,,,,,,,,,,,,,,P001,26,female,1,2026-01-18_16h28.01.002,SST2,2024.02.04,60.00960154,2026-01-18 16h28.23.321095 +0530
,40,0,5,,,,images/go_right.png,images/stop_right.png,right,0,right,1,0.3551232,None,,,,,,,,,5,0,40,6,,,,,,,,,,,,,94.503381,,,,,,,,,,,,,94.4909404,94.503381,94.7373338,94.7504008,94.7557681,94.7557681,94.8052496,95.1224058,,,,,0.3551232,None,0.05,,,,,94.7557681,,,,,,,,,,,right,1,0.3551232,None,,,,,,,,,,,,,,,,P001,26,female,1,2026-01-18_16h28.01.002,SST2,2024.02.04,60.00960154,2026-01-18 16h28.23.321095 +0530
,41,1,5,,,,images/go_left.png,images/stop_left.png,left,0,right,0,0.2584248,None,,,,,,,,,5,1,41,1,,,,,,,,,,,,,95.1365353,,,,,,,,,,,,,95.1225486,95.1365353,95.370548,95.3823307,95.3882487,95.3882487,95.4384879,95.6556711,,,,,None,None,0.05,,,,,95.3882487,,,,,,,,,,,right,0,0.2584248,None,,,,,,,,,,,,,,,,P001,26,female,1,2026-01-18_16h28.01.002,SST2,2024.02.04,60.00960154,2026-01-18 16h28.23.321095 +0530
,42,2,5,,,,images/go_left.png,images/stop_left.png,None,1,left,0,0.2971808,None,,,,,,,,,5,2,42,3,,,,,,,,,,,,,95.6698975,,,,,,,,,,,,,95.6558043,95.6698975,95.903799,95.9155923,95.9215531,95.9215531,95.9729456,96.2236083,,,,,None,0,0.05,,,,,95.9215531,,,,,,,,,,,left,0,0.2971808,None,,,,,,,,,,,,,,,,P001,26,female,1,2026-01-18_16h28.01.002,SST2,2024.02.04,60.00960154,2026-01-18 16h28.23.321095 +0530
,43,3,5,,,,images/go_left.png,images/stop_left.png,left,0,left,1,0.3368289,None,,,,,,,,,5,3,43,0,,,,,,,,,,,,,96.2363252,,,,,,,,,,,,,96.223789,96.2363252,96.4703746,96.4826796,96.4880065,96.4880065,96.5382038,96.8388922,,,,,0.3368289,None,0.05,,,,,96.4880065,,,,,,,,,,,left,1,0.3368289,None,,,,,,,,,,,,,,,,P001,26,female,1,2026-01-18_16h28.01.002,SST2,2024.02.04,60.00960154,2026-01-18 16h28.23.321095 +0530
,44,4,5,,,,images/go_right.png,images/stop_right.png,right,0,right,1,0.3513082,None,,,,,,,,,5,4,44,5,,,,,,,,,,,,,96.8531097,,,,,,,,,,,,,96.8390448,96.8531097,97.086804,97.0990747,97.1048265,97.1048265,97.1549403,97.4724676,,,,,0.3513082,None,0.05,,,,,97.1048265,,,,,,,,,,,right,1,0.3513082,None,,,,,,,,,,,,,,,,P001,26,female,1,2026-01-18_16h28.01.002,SST2,2024.02.04,60.00960154,2026-01-18 16h28.23.321095 +0530
,45,5,5,,,,images/go_right.png,images/stop_right.png,None,1,right,0,0.4382103,None,,,,,,,,,5,5,45,7,,,,,,,,,,,,,97.4863446,,,,,,,,,,,,,97.4726428,97.4863446,97.7202456,97.7332907,97.7386554,97.7386554,97.7893192,98.1895998,,,,,None,0,0.05,,,,,97.7386554,,,,,,,,,,,right,0,0.4382103,None,,,,,,,,,,,,,,,,P001,26,female,1,2026-01-18_16h28.01.002,SST2,2024.02.04,60.00960154,2026-01-18 16h28.23.321095 +0530
,46,6,5,,,,images/go_left.png,images/stop_left.png,left,0,left,1,0.3338601,None,,,,,,,,,5,6,46,2,,,,,,,,,,,,,98.2029807,,,,,,,,,,,,,98.1898144,98.2029807,98.4370573,98.4493321,98.4547207,98.4547207,98.5047429,98.8055915,,,,,0.3338601,None,0.05,,,,,98.4547207,,,,,,,,,,,left,1,0.3338601,None,,,,,,,,,,,,,,,,P001,26,female,1,2026-01-18_16h28.01.002,SST2,2024.02.04,60.00960154,2026-01-18 16h28.23.321095 +0530
,47,7,5,,,,images/go_right.png,images/stop_right.png,right,0,right,1,0.3127794,None,,,,,,,,,5,7,47,4,,,,,,,,,,,,,98.8197042,,,,,,,,,,,,,98.8057541,98.8197042,99.0533483,99.0664815,99.0721801,99.0721801,99.1213775,99.3885627,,,,,0.3127794,None,0.05,,,,,99.0721801,,,,,,,,,,,right,1,0.3127794,None,,,,,,,,,,,,,,,,P001,26,female,1,2026-01-18_16h28.01.002,SST2,2024.02.04,60.00960154,2026-01-18 16h28.23.321095 +0530
,48,0,6,,,,images/go_left.png,images/stop_left.png,None,1,left,0,0.3559927,None,,,,,,,,,6,0,48,3,,,,,,,,,,,,,99.4028438,,,,,,,,,,,,,99.3887076,99.4028438,99.6364781,99.6486504,99.6544648,99.6544648,99.7056341,100.0230209,,,,,None,0,0.05,,,,,99.6544648,,,,,,,,,,,left,0,0.3559927,None,,,,,,,,,,,,,,,,P001,26,female,1,2026-01-18_16h28.01.002,SST2,2024.02.04,60.00960154,2026-01-18 16h28.23.321095 +0530
,49,1,6,,,,images/go_left.png,images/stop_left.png,left,0,right,0,0.24841,None,,,,,,,,,6,1,49,2,,,,,,,,,,,,,100.0360248,,,,,,,,,,,,,100.0232653,100.0360248,100.2697665,100.2815435,100.2876194,100.2876194,100.337802,100.538589,,,,,None,None,0.05,,,,,100.2876194,,,,,,,,,,,right,0,0.24841,None,,,,,,,,,,,,,,,,P001,26,female,1,2026-01-18_16h28.01.002,SST2,2024.02.04,60.00960154,2026-01-18 16h28.23.321095 +0530
,50,2,6,,,,images/go_right.png,images/stop_right.png,right,0,left,0,0.1685506,None,,,,,,,,,6,2,50,5,,,,,,,,,,,,,100.5526638,,,,,,,,,,,,,100.5387328,100.5526638,100.7862972,100.7982931,100.8043142,100.8043142,100.8544673,100.9885239,,,,,None,None,0.05,,,,,100.8043142,,,,,,,,,,,left,0,0.1685506,None,,,,,,,,,,,,,,,,P001,26,female,1,2026-01-18_16h28.01.002,SST2,2024.02.04,60.00960154,2026-01-18 16h28.23.321095 +0530
,51,3,6,,,,images/go_left.png,images/stop_left.png,left,0,left,1,0.3545261,None,,,,,,,,,6,3,51,0,,,,,,,,,,,,,101.002561,,,,,,,,,,,,,100.9886811,101.002561,101.2365684,101.2491579,101.2544102,101.2544102,101.3044302,101.6216334,,,,,0.3545261,None,0.05,,,,,101.2544102,,,,,,,,,,,left,1,0.3545261,None,,,,,,,,,,,,,,,,P001,26,female,1,2026-01-18_16h28.01.002,SST2,2024.02.04,60.00960154,2026-01-18 16h28.23.321095 +0530
,52,4,6,,,,images/go_right.png,images/stop_right.png,None,1,left,0,0.2321012,None,,,,,,,,,6,4,52,7,,,,,,,,,,,,,101.6357681,,,,,,,,,,,,,101.6217757,101.6357681,101.869745,101.8827394,101.8880768,101.8880768,101.9386109,102.1228545,,,,,None,0,0.05,,,,,101.8880768,,,,,,,,,,,left,0,0.2321012,None,,,,,,,,,,,,,,,,P001,26,female,1,2026-01-18_16h28.01.002,SST2,2024.02.04,60.00960154,2026-01-18 16h28.23.321095 +0530
,53,5,6,,,,images/go_right.png,images/stop_right.png,right,0,right,1,0.072769,None,,,,,,,,,6,5,53,4,,,,,,,,,,,,,102.1357497,,,,,,,,,,,,,102.1230721,102.1357497,102.3696094,102.3821695,102.3878178,102.3878178,102.4375953,102.4716968,,,,,0.072769,None,0.05,,,,,102.3878178,,,,,,,,,,,right,1,0.072769,None,,,,,,,,,,,,,,,,P001,26,female,1,2026-01-18_16h28.01.002,SST2,2024.02.04,60.00960154,2026-01-18 16h28.23.321095 +0530
,54,6,6,,,,images/go_right.png,images/stop_right.png,right,0,right,1,0.2435316,None,,,,,,,,,6,6,54,6,,,,,,,,,,,,,102.4856142,,,,,,,,,,,,,102.4718298,102.4856142,102.7195557,102.7315656,102.7374535,102.7374535,102.7875686,102.9880795,,,,,0.2435316,None,0.05,,,,,102.7374535,,,,,,,,,,,right,1,0.2435316,None,,,,,,,,,,,,,,,,P001,26,female,1,2026-01-18_16h28.01.002,SST2,2024.02.04,60.00960154,2026-01-18 16h28.23.321095 +0530
,55,7,6,,,,images/go_left.png,images/stop_left.png,left,0,left,1,0.3945214,None,,,,,,,,,6,7,55,1,,,,,,,,,,,,,103.0023877,,,,,,,,,,,,,102.9882196,103.0023877,103.2360743,103.248376,103.2541497,103.2541497,103.3041533,103.6549128,,,,,0.3945214,None,0.05,,,,,103.2541497,,,,,,,,,,,left,1,0.3945214,None,,,,,,,,,,,,,,,,P001,26,female,1,2026-01-18_16h28.01.002,SST2,2024.02.04,60.00960154,2026-01-18 16h28.23.321095 +0530
,56,0,7,,,,images/go_left.png,images/stop_left.png,left,0,left,1,0.4234598,None,,,,,,,,,7,0,56,2,,,,,,,,,,,,,103.6689477,,,,,,,,,,,,,103.6550622,103.6689477,103.9027703,103.915181,103.920705,103.920705,103.970821,104.3546208,,,,,0.4234598,None,0.05,,,,,103.920705,,,,,,,,,,,left,1,0.4234598,None,,,,,,,,,,,,,,,,P001,26,female,1,2026-01-18_16h28.01.002,SST2,2024.02.04,60.00960154,2026-01-18 16h28.23.321095 +0530
,57,1,7,,,,images/go_right.png,images/stop_right.png,None,1,right,0,0.3496636,None,,,,,,,,,7,1,57,7,,,,,,,,,,,,,104.3687587,,,,,,,,,,,,,104.3547568,104.3687587,104.6025905,104.6163075,104.6221185,104.6221185,104.6716893,104.9726686,,,,,None,0,0.05,,,,,104.6221185,,,,,,,,,,,right,0,0.3496636,None,,,,,,,,,,,,,,,,P001,26,female,1,2026-01-18_16h28.01.002,SST2,2024.02.04,60.00960154,2026-01-18 16h28.23.321095 +0530
,58,2,7,,,,images/go_right.png,images/stop_right.png,right,0,right,1,0.4068442,None,,,,,,,,,7,2,58,6,,,,,,,,,,,,,104.9854546,,,,,,,,,,,,,104.9728773,104.9854546,105.2191987,105.2352743,105.2404996,105.2404996,105.2870727,105.6545265,,,,,0.4068442,None,0.05,,,,,105.2404996,,,,,,,,,,,right,1,0.4068442,None,,,,,,,,,,,,,,,,P001,26,female,1,2026-01-18_16h28.01.002,SST2,2024.02.04,60.00960154,2026-01-18 16h28.23.321095 +0530
,59,3,7,,,,images/go_left.png,images/stop_left.png,left,0,left,1,0.4627491,None,,,,,,,,,7,3,59,1,,,,,,,,,,,,,105.6687453,,,,,,,,,,,,,105.6546718,105.6687453,105.902551,105.9155251,105.9209648,105.9209648,105.9704835,106.3876093,,,,,0.4627491,None,0.05,,,,,105.9209648,,,,,,,,,,,left,1,0.4627491,None,,,,,,,,,,,,,,,,P001,26,female,1,2026-01-18_16h28.01.002,SST2,2024.02.04,60.00960154,2026-01-18 16h28.23.321095 +0530
,60,4,7,,,,images/go_right.png,images/stop_right.png,right,0,right,1,0.491035,None,,,,,,,,,7,4,60,5,,,,,,,,,,,,,106.4017822,,,,,,,,,,,,,106.3878123,106.4017822,106.6356737,106.6482801,106.6535776,106.6535776,106.703629,107.1543586,,,,,0.491035,None,0.05,,,,,106.6535776,,,,,,,,,,,right,1,0.491035,None,,,,,,,,,,,,,,,,P001,26,female,1,2026-01-18_16h28.01.002,SST2,2024.02.04,60.00960154,2026-01-18 16h28.23.321095 +0530
,61,5,7,,,,images/go_left.png,images/stop_left.png,left,0,left,1,0.4664339,None,,,,,,,,,7,5,61,0,,,,,,,,,,,,,107.1684257,,,,,,,,,,,,,107.1544957,107.1684257,107.4023163,107.4150122,107.4203526,107.4203526,107.4703054,107.8877735,,,,,0.4664339,None,0.05,,,,,107.4203526,,,,,,,,,,,left,1,0.4664339,None,,,,,,,,,,,,,,,,P001,26,female,1,2026-01-18_16h28.01.002,SST2,2024.02.04,60.00960154,2026-01-18 16h28.23.321095 +0530
,62,6,7,,,,images/go_left.png,images/stop_left.png,None,1,left,0,0.5138686,None,,,,,,,,,7,6,62,3,,,,,,,,,,,,,107.9016344,,,,,,,,,,,,,107.8879214,107.9016344,108.1354714,108.148454,108.1542135,108.1542135,108.2046468,108.6719271,,,,,None,0,0.05,,,,,108.1542135,,,,,,,,,,,left,0,0.5138686,None,,,,,,,,,,,,,,,,P001,26,female,1,2026-01-18_16h28.01.002,SST2,2024.02.04,60.00960154,2026-01-18 16h28.23.321095 +0530
,63,7,7,,,,images/go_right.png,images/stop_right.png,right,0,left,0,0.2701603,None,,,,,,,,,7,7,63,4,,,,,,,,,,,,,108.6849765,,,,,,,,,,,,,108.6721164,108.6849765,108.9187878,108.9342436,108.9394617,108.9394617,108.9866038,109.2207786,,,,,None,None,0.05,,,,,108.9394617,,,,,,,,,,,left,0,0.2701603,None,,,,,,,,,,,,,,,,P001,26,female,1,2026-01-18_16h28.01.002,SST2,2024.02.04,60.00960154,2026-01-18 16h28.23.321095 +0530
,,,,,,,,,,,,,,,,,,,,,,,,,,,,,,,,,,,,,,,,,,,,,,,,,,,,,,,,,,,,,,,,,,,,,,,,,,,109.2350986,109.2392139,109.2392139,116.4678533,space,7.2198421,None,,,,,,,,,,,,,,,,,,,,P001,26,female,1,2026-01-18_16h28.01.002,SST2,2024.02.04,60.00960154,2026-01-18 16h28.23.321095 +0530
,0,0,0,,,,images/go_right.png,images/stop_right.png,right,0,right,1,0.469104,None,,,,,,,,,,,,,0,0,0,4,,,,,,,,,116.48381,,,,,,,,,,,,,116.4728028,116.48381,116.7177377,116.7307871,116.7359729,116.7359729,116.7690637,117.2197612,,,,,0.469104,None,0.05,,,,,116.7359729,,,,,,,,,,,,,,,right,1,0.469104,None,,,,,,,,,,,,P001,26,female,1,2026-01-18_16h28.01.002,SST2,2024.02.04,60.00960154,2026-01-18 16h28.23.321095 +0530
,1,1,0,,,,images/go_left.png,images/stop_left.png,left,0,left,1,0.3650658,None,,,,,,,,,,,,,0,1,1,2,,,,,,,,,117.2339165,,,,,,,,,,,,,117.2199136,117.2339165,117.4676134,117.480248,117.4855199,117.4855199,117.535521,117.8531922,,,,,0.3650658,None,0.05,,,,,117.4855199,,,,,,,,,,,,,,,left,1,0.3650658,None,,,,,,,,,,,,P001,26,female,1,2026-01-18_16h28.01.002,SST2,2024.02.04,60.00960154,2026-01-18 16h28.23.321095 +0530
,2,2,0,,,,images/go_left.png,images/stop_left.png,None,1,None,1,,,,,,,,,,,,,,,0,2,2,3,,,,,,,,,117.8671878,,,,,,,,,,,,,117.8533559,117.8671878,118.1008909,118.113219,118.1188488,118.1188488,118.1700919,119.4186934,,,,,None,1,0.1,,,,,118.1188488,119.3680599,119.3680599,119.4335639,,,,,,,,,,,,None,1,,,,,,,,,,,,,,P001,26,female,1,2026-01-18_16h28.01.002,SST2,2024.02.04,60.00960154,2026-01-18 16h28.23.321095 +0530
,3,3,0,,,,images/go_right.png,images/stop_right.png,right,0,right,1,0.3152796,None,,,,,,,,,,,,,0,3,3,5,,,,,,,,,119.4335639,,,,,,,,,,,,,119.4188942,119.4335639,119.6673751,119.679888,119.6850363,119.6850363,119.7686585,120.0027909,,,,,0.3152796,None,0.1,,,,,119.6850363,,,,,,,,,,,,,,,right,1,0.3152796,None,,,,,,,,,,,,P001,26,female,1,2026-01-18_16h28.01.002,SST2,2024.02.04,60.00960154,2026-01-18 16h28.23.321095 +0530
,4,4,0,,,,images/go_right.png,images/stop_right.png,None,1,None,1,,,,,,,,,,,,,,,0,4,4,7,,,,,,,,,120.0168714,,,,,,,,,,,,,120.0029278,120.0168714,120.2507684,120.2631033,120.2685289,120.2685289,120.3696574,121.6183799,,,,,None,1,0.15,,,,,120.2685289,121.5179354,121.5179354,121.6333405,,,,,,,,,,,,None,1,,,,,,,,,,,,,,P001,26,female,1,2026-01-18_16h28.01.002,SST2,2024.02.04,60.00960154,2026-01-18 16h28.23.321095 +0530
,5,5,0,,,,images/go_left.png,images/stop_left.png,left,0,left,1,0.3741728,None,,,,,,,,,,,,,0,5,5,1,,,,,,,,,121.6333405,,,,,,,,,,,,,121.6185953,121.6333405,121.8671282,121.8800768,121.8853542,121.8853542,122.0184093,122.2691231,,,,,0.3741728,None,0.15,,,,,121.8853542,,,,,,,,,,,,,,,left,1,0.3741728,None,,,,,,,,,,,,P001,26,female,1,2026-01-18_16h28.01.002,SST2,2024.02.04,60.00960154,2026-01-18 16h28.23.321095 +0530
,6,6,0,,,,images/go_right.png,images/stop_right.png,right,0,right,1,0.32668,None,,,,,,,,,,,,,0,6,6,6,,,,,,,,,122.2832303,,,,,,,,,,,,,122.2692665,122.2832303,122.5170322,122.5295871,122.535058,122.535058,122.6850151,122.8690083,,,,,0.32668,None,0.15,,,,,122.535058,,,,,,,,,,,,,,,right,1,0.32668,None,,,,,,,,,,,,P001,26,female,1,2026-01-18_16h28.01.002,SST2,2024.02.04,60.00960154,2026-01-18 16h28.23.321095 +0530
,7,7,0,,,,images/go_left.png,images/stop_left.png,left,0,left,1,0.3270208,None,,,,,,,,,,,,,0,7,7,0,,,,,,,,,122.8830114,,,,,,,,,,,,,122.8691494,122.8830114,123.1169654,123.1286514,123.1346359,123.1346359,123.2849343,123.4688794,,,,,0.3270208,None,0.15,,,,,123.1346359,,,,,,,,,,,,,,,left,1,0.3270208,None,,,,,,,,,,,,P001,26,female,1,2026-01-18_16h28.01.002,SST2,2024.02.04,60.00960154,2026-01-18 16h28.23.321095 +0530
,8,0,1,,,,images/go_right.png,images/stop_right.png,None,1,None,1,,,,,,,,,,,,,,,1,0,8,7,,,,,,,,,123.4829879,,,,,,,,,,,,,123.4690139,123.4829879,123.7166867,123.7298513,123.734856,123.734856,123.8860335,125.1345903,,,,,None,1,0.2,,,,,123.734856,124.983853,124.983853,125.1496223,,,,,,,,,,,,None,1,,,,,,,,,,,,,,P001,26,female,1,2026-01-18_16h28.01.002,SST2,2024.02.04,60.00960154,2026-01-18 16h28.23.321095 +0530
,9,1,1,,,,images/go_left.png,images/stop_left.png,left,0,left,1,0.3562157,None,,,,,,,,,,,,,1,1,9,2,,,,,,,,,125.1496223,,,,,,,,,,,,,125.1347951,125.1496223,125.3831711,125.3951056,125.4012656,125.4012656,125.5845056,125.768598,,,,,0.3562157,None,0.2,,,,,125.4012656,,,,,,,,,,,,,,,left,1,0.3562157,None,,,,,,,,,,,,P001,26,female,1,2026-01-18_16h28.01.002,SST2,2024.02.04,60.00960154,2026-01-18 16h28.23.321095 +0530
,10,2,1,,,,images/go_right.png,images/stop_right.png,right,0,right,1,0.3638133,None,,,,,,,,,,,,,1,2,10,4,,,,,,,,,125.7826825,,,,,,,,,,,,,125.7687879,125.7826825,126.0166645,126.0289763,126.0343368,126.0343368,126.2345713,126.4019313,,,,,0.3638133,None,0.2,,,,,126.0343368,,,,,,,,,,,,,,,right,1,0.3638133,None,,,,,,,,,,,,P001,26,female,1,2026-01-18_16h28.01.002,SST2,2024.02.04,60.00960154,2026-01-18 16h28.23.321095 +0530
,11,3,1,,,,images/go_left.png,images/stop_left.png,left,0,left,1,0.3002636,None,,,,,,,,,,,,,1,3,11,1,,,,,,,,,126.4160594,,,,,,,,,,,,,126.402089,126.4160594,126.6500161,126.6636092,126.6688725,126.6688725,126.8677565,126.9848132,,,,,0.3002636,None,0.2,,,,,126.6688725,,,,,,,,,,,,,,,left,1,0.3002636,None,,,,,,,,,,,,P001,26,female,1,2026-01-18_16h28.01.002,SST2,2024.02.04,60.00960154,2026-01-18 16h28.23.321095 +0530
,12,4,1,,,,images/go_right.png,images/stop_right.png,right,0,right,1,0.329796,None,,,,,,,,,,,,,1,4,12,5,,,,,,,,,126.9992786,,,,,,,,,,,,,126.98495,126.9992786,127.2331329,127.244961,127.2509536,127.2509536,127.4511248,127.5849228,,,,,0.329796,None,0.2,,,,,127.2509536,,,,,,,,,,,,,,,right,1,0.329796,None,,,,,,,,,,,,P001,26,female,1,2026-01-18_16h28.01.002,SST2,2024.02.04,60.00960154,2026-01-18 16h28.23.321095 +0530
,13,5,1,,,,images/go_right.png,images/stop_right.png,right,0,right,1,0.3507469,None,,,,,,,,,,,,,1,5,13,6,,,,,,,,,127.5992069,,,,,,,,,,,,,127.58509,127.5992069,127.8329675,127.8448256,127.8509112,127.8509112,128.0509664,128.2182472,,,,,0.3507469,None,0.2,,,,,127.8509112,,,,,,,,,,,,,,,right,1,0.3507469,None,,,,,,,,,,,,P001,26,female,1,2026-01-18_16h28.01.002,SST2,2024.02.04,60.00960154,2026-01-18 16h28.23.321095 +0530
,14,6,1,,,,images/go_left.png,images/stop_left.png,left,0,left,1,0.4093746,None,,,,,,,,,,,,,1,6,14,0,,,,,,,,,128.2323935,,,,,,,,,,,,,128.2183838,128.2323935,128.4664225,128.4789368,128.4842332,128.4842332,128.6841692,128.9014185,,,,,0.4093746,None,0.2,,,,,128.4842332,,,,,,,,,,,,,,,left,1,0.4093746,None,,,,,,,,,,,,P001,26,female,1,2026-01-18_16h28.01.002,SST2,2024.02.04,60.00960154,2026-01-18 16h28.23.321095 +0530
,15,7,1,,,,images/go_left.png,images/stop_left.png,None,1,left,0,0.3408564,None,,,,,,,,,,,,,1,7,15,3,,,,,,,,,128.9157266,,,,,,,,,,,,,128.9015675,128.9157266,129.1495526,129.163226,129.1683485,129.1683485,129.3686958,129.519232,,,,,None,0,0.15,,,,,129.1683485,,,,,,,,,,,,,,,left,0,0.3408564,None,,,,,,,,,,,,P001,26,female,1,2026-01-18_16h28.01.002,SST2,2024.02.04,60.00960154,2026-01-18 16h28.23.321095 +0530
,16,0,2,,,,images/go_right.png,images/stop_right.png,right,0,right,1,0.4118082,None,,,,,,,,,,,,,2,0,16,5,,,,,,,,,129.5322832,,,,,,,,,,,,,129.519418,129.5322832,129.7661048,129.778834,129.7841066,129.7841066,129.934018,130.2013291,,,,,0.4118082,None,0.15,,,,,129.7841066,,,,,,,,,,,,,,,right,1,0.4118082,None,,,,,,,,,,,,P001,26,female,1,2026-01-18_16h28.01.002,SST2,2024.02.04,60.00960154,2026-01-18 16h28.23.321095 +0530
,17,1,2,,,,images/go_right.png,images/stop_right.png,right,0,right,1,0.3898653,None,,,,,,,,,,,,,2,1,17,6,,,,,,,,,130.2155371,,,,,,,,,,,,,130.2014645,130.2155371,130.4494639,130.4613243,130.4672798,130.4672798,130.6173837,130.8680279,,,,,0.3898653,None,0.15,,,,,130.4672798,,,,,,,,,,,,,,,right,1,0.3898653,None,,,,,,,,,,,,P001,26,female,1,2026-01-18_16h28.01.002,SST2,2024.02.04,60.00960154,2026-01-18 16h28.23.321095 +0530
,18,2,2,,,,images/go_right.png,images/stop_right.png,None,1,None,1,,,,,,,,,,,,,,,2,2,18,7,,,,,,,,,130.8821697,,,,,,,,,,,,,130.8681764,130.8821697,131.1160521,131.1286912,131.1340329,131.1340329,131.2851487,132.5337052,,,,,None,1,0.2,,,,,131.1340329,132.3828381,132.3828381,132.5486504,,,,,,,,,,,,None,1,,,,,,,,,,,,,,P001,26,female,1,2026-01-18_16h28.01.002,SST2,2024.02.04,60.00960154,2026-01-18 16h28.23.321095 +0530
,19,3,2,,,,images/go_left.png,images/stop_left.png,left,0,left,1,0.3872679,None,,,,,,,,,,,,,2,3,19,1,,,,,,,,,132.5486504,,,,,,,,,,,,,132.5339081,132.5486504,132.7822792,132.7952725,132.8008103,132.8008103,132.983621,133.2009563,,,,,0.3872679,None,0.2,,,,,132.8008103,,,,,,,,,,,,,,,left,1,0.3872679,None,,,,,,,,,,,,P001,26,female,1,2026-01-18_16h28.01.002,SST2,2024.02.04,60.00960154,2026-01-18 16h28.23.321095 +0530
,20,4,2,,,,images/go_left.png,images/stop_left.png,left,0,left,1,0.7916575,None,,,,,,,,,,,,,2,4,20,2,,,,,,,,,133.2150759,,,,,,,,,,,,,133.2011135,133.2150759,133.4489424,133.4608588,133.4668732,133.4668732,133.6669336,134.2676344,,,,,0.7916575,None,0.2,,,,,133.4668732,,,,,,,,,,,,,,,left,1,0.7916575,None,,,,,,,,,,,,P001,26,female,1,2026-01-18_16h28.01.002,SST2,2024.02.04,60.00960154,2026-01-18 16h28.23.321095 +0530
,21,5,2,,,,images/go_left.png,images/stop_left.png,left,0,left,1,0.4012655,None,,,,,,,,,,,,,2,5,21,0,,,,,,,,,134.2818018,,,,,,,,,,,,,134.267785,134.2818018,134.5158157,134.5285045,134.5337345,134.5337345,134.7334689,134.9508254,,,,,0.4012655,None,0.2,,,,,134.5337345,,,,,,,,,,,,,,,left,1,0.4012655,None,,,,,,,,,,,,P001,26,female,1,2026-01-18_16h28.01.002,SST2,2024.02.04,60.00960154,2026-01-18 16h28.23.321095 +0530
,22,6,2,,,,images/go_left.png,images/stop_left.png,None,1,None,1,,,,,,,,,,,,,,,2,6,22,3,,,,,,,,,134.9649588,,,,,,,,,,,,,134.950981,134.9649588,135.1986836,135.2113056,135.2168901,135.2168901,135.4177531,136.6664196,,,,,None,1,0.25,,,,,135.2168901,136.4658728,136.4658728,136.6813235,,,,,,,,,,,,None,1,,,,,,,,,,,,,,P001,26,female,1,2026-01-18_16h28.01.002,SST2,2024.02.04,60.00960154,2026-01-18 16h28.23.321095 +0530
,23,7,2,,,,images/go_right.png,images/stop_right.png,right,0,right,1,0.3465535,None,,,,,,,,,,,,,2,7,23,4,,,,,,,,,136.6813235,,,,,,,,,,,,,136.6666303,136.6813235,136.9151584,136.9281649,136.9334952,136.9334952,137.1664425,137.2839514,,,,,0.3465535,None,0.25,,,,,136.9334952,,,,,,,,,,,,,,,right,1,0.3465535,None,,,,,,,,,,,,P001,26,female,1,2026-01-18_16h28.01.002,SST2,2024.02.04,60.00960154,2026-01-18 16h28.23.321095 +0530
,24,0,3,,,,images/go_left.png,images/stop_left.png,left,0,left,1,0.3666874,None,,,,,,,,,,,,,3,0,24,0,,,,,,,,,137.2978785,,,,,,,,,,,,,137.2841221,137.2978785,137.5317739,137.5438655,137.549642,137.549642,137.7997166,137.9173247,,,,,0.3666874,None,0.25,,,,,137.549642,,,,,,,,,,,,,,,left,1,0.3666874,None,,,,,,,,,,,,P001,26,female,1,2026-01-18_16h28.01.002,SST2,2024.02.04,60.00960154,2026-01-18 16h28.23.321095 +0530
,25,1,3,,,,images/go_right.png,images/stop_right.png,right,0,right,1,0.3390825,None,,,,,,,,,,,,,3,1,25,6,,,,,,,,,137.9310781,,,,,,,,,,,,,137.9174626,137.9310781,138.1650184,138.1785534,138.1839327,138.1839327,138.4329858,138.5335122,,,,,0.3390825,None,0.25,,,,,138.1839327,,,,,,,,,,,,,,,right,1,0.3390825,None,,,,,,,,,,,,P001,26,female,1,2026-01-18_16h28.01.002,SST2,2024.02.04,60.00960154,2026-01-18 16h28.23.321095 +0530
,26,2,3,,,,images/go_left.png,images/stop_left.png,None,1,None,1,,,,,,,,,,,,,,,3,2,26,3,,,,,,,,,138.547821,,,,,,,,,,,,,138.5336588,138.547821,138.7816651,138.7939637,138.7995469,138.7995469,139.0506177,140.2994636,,,,,None,1,0.3,,,,,138.7995469,140.048735,140.048735,140.3142684,,,,,,,,,,,,None,1,,,,,,,,,,,,,,P001,26,female,1,2026-01-18_16h28.01.002,SST2,2024.02.04,60.00960154,2026-01-18 16h28.23.321095 +0530
,27,3,3,,,,images/go_right.png,images/stop_right.png,None,1,right,0,0.3913165,None,,,,,,,,,,,,,3,3,27,7,,,,,,,,,140.3142684,,,,,,,,,,,,,140.2996702,140.3142684,140.5482091,140.5605997,140.565997,140.565997,140.850507,140.9678052,,,,,None,0,0.25,,,,,140.565997,,,,,,,,,,,,,,,right,0,0.3913165,None,,,,,,,,,,,,P001,26,female,1,2026-01-18_16h28.01.002,SST2,2024.02.04,60.00960154,2026-01-18 16h28.23.321095 +0530
,28,4,3,,,,images/go_left.png,images/stop_left.png,left,0,left,1,0.4258516,None,,,,,,,,,,,,,3,4,28,1,,,,,,,,,140.9808247,,,,,,,,,,,,,140.9680014,140.9808247,141.2147656,141.2263405,141.2325642,141.2325642,141.4825028,141.6665204,,,,,0.4258516,None,0.25,,,,,141.2325642,,,,,,,,,,,,,,,left,1,0.4258516,None,,,,,,,,,,,,P001,26,female,1,2026-01-18_16h28.01.002,SST2,2024.02.04,60.00960154,2026-01-18 16h28.23.321095 +0530
,29,5,3,,,,images/go_right.png,images/stop_right.png,right,0,right,1,0.8328075,None,,,,,,,,,,,,,3,5,29,5,,,,,,,,,141.6807386,,,,,,,,,,,,,141.6666678,141.6807386,141.9146002,141.9280675,141.9332579,141.9332579,142.1824121,142.7829664,,,,,0.8328075,None,0.25,,,,,141.9332579,,,,,,,,,,,,,,,right,1,0.8328075,None,,,,,,,,,,,,P001,26,female,1,2026-01-18_16h28.01.002,SST2,2024.02.04,60.00960154,2026-01-18 16h28.23.321095 +0530
,30,6,3,,,,images/go_left.png,images/stop_left.png,left,0,left,1,0.7552978,None,,,,,,,,,,,,,3,6,30,2,,,,,,,,,142.7971812,,,,,,,,,,,,,142.7831012,142.7971812,143.0308495,143.0429292,143.0490443,143.0490443,143.2990815,143.8162818,,,,,0.7552978,None,0.25,,,,,143.0490443,,,,,,,,,,,,,,,left,1,0.7552978,None,,,,,,,,,,,,P001,26,female,1,2026-01-18_16h28.01.002,SST2,2024.02.04,60.00960154,2026-01-18 16h28.23.321095 +0530
,31,7,3,,,,images/go_right.png,images/stop_right.png,right,0,right,1,0.3563954,None,,,,,,,,,,,,,3,7,31,4,,,,,,,,,143.8304783,,,,,,,,,,,,,143.8164144,143.8304783,144.0642743,144.0763268,144.0821415,144.0821415,144.3322759,144.4496156,,,,,0.3563954,None,0.25,,,,,144.0821415,,,,,,,,,,,,,,,right,1,0.3563954,None,,,,,,,,,,,,P001,26,female,1,2026-01-18_16h28.01.002,SST2,2024.02.04,60.00960154,2026-01-18 16h28.23.321095 +0530
,32,0,4,,,,images/go_right.png,images/stop_right.png,right,0,right,1,0.5609019,None,,,,,,,,,,,,,4,0,32,6,,,,,,,,,144.4637987,,,,,,,,,,,,,144.4497598,144.4637987,144.6975343,144.7094158,144.7154725,144.7154725,144.9655587,145.2828125,,,,,0.5609019,None,0.25,,,,,144.7154725,,,,,,,,,,,,,,,right,1,0.5609019,None,,,,,,,,,,,,P001,26,female,1,2026-01-18_16h28.01.002,SST2,2024.02.04,60.00960154,2026-01-18 16h28.23.321095 +0530
,33,1,4,,,,images/go_left.png,images/stop_left.png,left,0,left,1,0.383204,None,,,,,,,,,,,,,4,1,33,0,,,,,,,,,145.2969378,,,,,,,,,,,,,145.2829467,145.2969378,145.5308459,145.5432062,145.5487926,145.5487926,145.7987085,145.9328779,,,,,0.383204,None,0.25,,,,,145.5487926,,,,,,,,,,,,,,,left,1,0.383204,None,,,,,,,,,,,,P001,26,female,1,2026-01-18_16h28.01.002,SST2,2024.02.04,60.00960154,2026-01-18 16h28.23.321095 +0530
,34,2,4,,,,images/go_left.png,images/stop_left.png,left,0,left,1,0.3892195,None,,,,,,,,,,,,,4,2,34,2,,,,,,,,,145.946857,,,,,,,,,,,,,145.9330134,145.946857,146.1806979,146.1934701,146.198757,146.198757,146.4488334,146.5993721,,,,,0.3892195,None,0.25,,,,,146.198757,,,,,,,,,,,,,,,left,1,0.3892195,None,,,,,,,,,,,,P001,26,female,1,2026-01-18_16h28.01.002,SST2,2024.02.04,60.00960154,2026-01-18 16h28.23.321095 +0530
,35,3,4,,,,images/go_left.png,images/stop_left.png,None,1,left,0,0.3889182,None,,,,,,,,,,,,,4,3,35,3,,,,,,,,,146.6135448,,,,,,,,,,,,,146.5995116,146.6135448,146.8472935,146.8594067,146.8651757,146.8651757,147.1163426,147.2669648,,,,,None,0,0.2,,,,,146.8651757,,,,,,,,,,,,,,,left,0,0.3889182,None,,,,,,,,,,,,P001,26,female,1,2026-01-18_16h28.01.002,SST2,2024.02.04,60.00960154,2026-01-18 16h28.23.321095 +0530
,36,4,4,,,,images/go_right.png,images/stop_right.png,right,0,right,1,0.4627647,None,,,,,,,,,,,,,4,4,36,5,,,,,,,,,147.279859,,,,,,,,,,,,,147.2671909,147.279859,147.5137677,147.5287951,147.5341893,147.5341893,147.7317574,147.9992371,,,,,0.4627647,None,0.2,,,,,147.5341893,,,,,,,,,,,,,,,right,1,0.4627647,None,,,,,,,,,,,,P001,26,female,1,2026-01-18_16h28.01.002,SST2,2024.02.04,60.00960154,2026-01-18 16h28.23.321095 +0530
,37,5,4,,,,images/go_right.png,images/stop_right.png,None,1,None,1,,,,,,,,,,,,,,,4,5,37,7,,,,,,,,,148.0132452,,,,,,,,,,,,,147.9994147,148.0132452,148.2471337,148.2594943,148.2649343,148.2649343,148.4662127,149.7147744,,,,,None,1,0.25,,,,,148.2649343,149.5144258,149.5144258,149.7296614,,,,,,,,,,,,None,1,,,,,,,,,,,,,,P001,26,female,1,2026-01-18_16h28.01.002,SST2,2024.02.04,60.00960154,2026-01-18 16h28.23.321095 +0530
,38,6,4,,,,images/go_left.png,images/stop_left.png,left,0,right,0,0.8920962,None,,,,,,,,,,,,,4,6,38,1,,,,,,,,,149.7296614,,,,,,,,,,,,,149.7149733,149.7296614,149.9635561,149.9756978,149.9813681,149.9813681,150.2148649,150.8818342,,,,,None,None,0.25,,,,,149.9813681,,,,,,,,,,,,,,,right,0,0.8920962,None,,,,,,,,,,,,P001,26,female,1,2026-01-18_16h28.01.002,SST2,2024.02.04,60.00960154,2026-01-18 16h28.23.321095 +0530
,39,7,4,,,,images/go_right.png,images/stop_right.png,right,0,right,1,0.6907152,None,,,,,,,,,,,,,4,7,39,4,,,,,,,,,150.8962444,,,,,,,,,,,,,150.8819868,150.8962444,151.1300759,151.1490273,151.1544153,151.1544153,151.3980247,151.8485846,,,,,0.6907152,None,0.25,,,,,151.1544153,,,,,,,,,,,,,,,right,1,0.6907152,None,,,,,,,,,,,,P001,26,female,1,2026-01-18_16h28.01.002,SST2,2024.02.04,60.00960154,2026-01-18 16h28.23.321095 +0530
,40,0,5,,,,images/go_right.png,images/stop_right.png,right,0,right,1,0.3849632,None,,,,,,,,,,,,,5,0,40,4,,,,,,,,,151.8627017,,,,,,,,,,,,,151.8487201,151.8627017,152.0966018,152.1090081,152.1145312,152.1145312,152.3646664,152.5152835,,,,,0.3849632,None,0.25,,,,,152.1145312,,,,,,,,,,,,,,,right,1,0.3849632,None,,,,,,,,,,,,P001,26,female,1,2026-01-18_16h28.01.002,SST2,2024.02.04,60.00960154,2026-01-18 16h28.23.321095 +0530
,41,1,5,,,,images/go_right.png,images/stop_right.png,right,0,right,1,0.3951174,None,,,,,,,,,,,,,5,1,41,6,,,,,,,,,152.529164,,,,,,,,,,,,,152.5154444,152.529164,152.763169,152.7756261,152.7808984,152.7808984,153.0311654,153.1820815,,,,,0.3951174,None,0.25,,,,,152.7808984,,,,,,,,,,,,,,,right,1,0.3951174,None,,,,,,,,,,,,P001,26,female,1,2026-01-18_16h28.01.002,SST2,2024.02.04,60.00960154,2026-01-18 16h28.23.321095 +0530
,42,2,5,,,,images/go_right.png,images/stop_right.png,right,0,right,1,0.5958293,None,,,,,,,,,,,,,5,2,42,5,,,,,,,,,153.1959656,,,,,,,,,,,,,153.1822302,153.1959656,153.4297559,153.442127,153.4477107,153.4477107,153.6977866,154.0483494,,,,,0.5958293,None,0.25,,,,,153.4477107,,,,,,,,,,,,,,,right,1,0.5958293,None,,,,,,,,,,,,P001,26,female,1,2026-01-18_16h28.01.002,SST2,2024.02.04,60.00960154,2026-01-18 16h28.23.321095 +0530
,43,3,5,,,,images/go_left.png,images/stop_left.png,left,0,right,0,0.2890912,None,,,,,,,,,,,,,5,3,43,1,,,,,,,,,154.0624218,,,,,,,,,,,,,154.0485264,154.0624218,154.2964755,154.3099089,154.3151444,154.3151444,154.5643019,154.6149207,,,,,None,None,0.25,,,,,154.3151444,,,,,,,,,,,,,,,right,0,0.2890912,None,,,,,,,,,,,,P001,26,female,1,2026-01-18_16h28.01.002,SST2,2024.02.04,60.00960154,2026-01-18 16h28.23.321095 +0530
,44,4,5,,,,images/go_left.png,images/stop_left.png,left,0,left,1,0.2893015,None,,,,,,,,,,,,,5,4,44,0,,,,,,,,,154.6290478,,,,,,,,,,,,,154.6150556,154.6290478,154.8629676,154.8754952,154.8807158,154.8807158,155.1308992,155.1815544,,,,,0.2893015,None,0.25,,,,,154.8807158,,,,,,,,,,,,,,,left,1,0.2893015,None,,,,,,,,,,,,P001,26,female,1,2026-01-18_16h28.01.002,SST2,2024.02.04,60.00960154,2026-01-18 16h28.23.321095 +0530
,45,5,5,,,,images/go_left.png,images/stop_left.png,left,0,left,1,0.5491934,None,,,,,,,,,,,,,5,5,45,2,,,,,,,,,155.1956429,,,,,,,,,,,,,155.1817095,155.1956429,155.4292449,155.4416367,155.4474216,155.4474216,155.6975447,155.9981389,,,,,0.5491934,None,0.25,,,,,155.4474216,,,,,,,,,,,,,,,left,1,0.5491934,None,,,,,,,,,,,,P001,26,female,1,2026-01-18_16h28.01.002,SST2,2024.02.04,60.00960154,2026-01-18 16h28.23.321095 +0530
,46,6,5,,,,images/go_left.png,images/stop_left.png,None,1,None,1,,,,,,,,,,,,,,,5,6,46,3,,,,,,,,,156.0122608,,,,,,,,,,,,,155.9982761,156.0122608,156.2461487,156.2600792,156.2653433,156.2653433,156.5150758,157.7637013,,,,,None,1,0.3,,,,,156.2653433,157.5131941,157.5131941,157.7784703,,,,,,,,,,,,None,1,,,,,,,,,,,,,,P001,26,female,1,2026-01-18_16h28.01.002,SST2,2024.02.04,60.00960154,2026-01-18 16h28.23.321095 +0530
,47,7,5,,,,images/go_right.png,images/stop_right.png,None,1,None,1,,,,,,,,,,,,,,,5,7,47,7,,,,,,,,,157.7784703,,,,,,,,,,,,,157.7638935,157.7784703,158.0127416,158.0255274,158.0307214,158.0307214,158.3150469,159.5634839,,,,,None,1,0.35,,,,,158.0307214,159.2796217,159.2796217,159.5784894,,,,,,,,,,,,None,1,,,,,,,,,,,,,,P001,26,female,1,2026-01-18_16h28.01.002,SST2,2024.02.04,60.00960154,2026-01-18 16h28.23.321095 +0530
,48,0,6,,,,images/go_left.png,images/stop_left.png,left,0,None,0,,,,,,,,,,,,,,,6,0,48,1,,,,,,,,,159.5784894,,,,,,,,,,,,,159.5636815,159.5784894,159.8122456,159.8282783,159.8335949,159.8335949,160.1635563,161.4123058,,,,,None,None,0.35,,,,,159.8335949,161.0950859,161.0950859,161.4282844,,,,,,,,,,,,None,0,,,,,,,,,,,,,,P001,26,female,1,2026-01-18_16h28.01.002,SST2,2024.02.04,60.00960154,2026-01-18 16h28.23.321095 +0530
,49,1,6,,,,images/go_left.png,images/stop_left.png,None,1,None,1,,,,,,,,,,,,,,,6,1,49,3,,,,,,,,,161.4282844,,,,,,,,,,,,,161.412457,161.4282844,161.6620994,161.674475,161.6798121,161.6798121,162.0145737,163.2629875,,,,,None,1,0.4,,,,,161.6798121,162.9289591,162.9289591,163.2780535,,,,,,,,,,,,None,1,,,,,,,,,,,,,,P001,26,female,1,2026-01-18_16h28.01.002,SST2,2024.02.04,60.00960154,2026-01-18 16h28.23.321095 +0530
,50,2,6,,,,images/go_right.png,images/stop_right.png,right,0,None,0,,,,,,,,,,,,,,,6,2,50,5,,,,,,,,,163.2780535,,,,,,,,,,,,,163.2631799,163.2780535,163.511936,163.5248547,163.5301676,163.5301676,163.9131873,165.1617876,,,,,None,None,0.4,,,,,163.5301676,164.7779363,164.7779363,165.1776768,,,,,,,,,,,,None,0,,,,,,,,,,,,,,P001,26,female,1,2026-01-18_16h28.01.002,SST2,2024.02.04,60.00960154,2026-01-18 16h28.23.321095 +0530
,51,3,6,,,,images/go_right.png,images/stop_right.png,None,1,None,1,,,,,,,,,,,,,,,6,3,51,7,,,,,,,,,165.1776768,,,,,,,,,,,,,165.1619174,165.1776768,165.4115398,165.4239985,165.4293216,165.4293216,165.8139907,167.0626467,,,,,None,1,0.45,,,,,165.4293216,166.678649,166.678649,167.0773173,,,,,,,,,,,,None,1,,,,,,,,,,,,,,P001,26,female,1,2026-01-18_16h28.01.002,SST2,2024.02.04,60.00960154,2026-01-18 16h28.23.321095 +0530
,52,4,6,,,,images/go_left.png,images/stop_left.png,left,0,None,0,,,,,,,,,,,,,,,6,4,52,2,,,,,,,,,167.0773173,,,,,,,,,,,,,167.0629005,167.0773173,167.3113936,167.3237767,167.3289943,167.3289943,167.7624863,169.0115158,,,,,None,None,0.45,,,,,167.3289943,168.577268,168.577268,169.0272253,,,,,,,,,,,,None,0,,,,,,,,,,,,,,P001,26,female,1,2026-01-18_16h28.01.002,SST2,2024.02.04,60.00960154,2026-01-18 16h28.23.321095 +0530
,53,5,6,,,,images/go_right.png,images/stop_right.png,right,0,None,0,,,,,,,,,,,,,,,6,5,53,6,,,,,,,,,169.0272253,,,,,,,,,,,,,169.0116648,169.0272253,169.2610318,169.274337,169.2796947,169.2796947,169.7123273,170.9609175,,,,,None,None,0.45,,,,,169.2796947,170.543821,170.543821,170.9770504,,,,,,,,,,,,None,0,,,,,,,,,,,,,,P001,26,female,1,2026-01-18_16h28.01.002,SST2,2024.02.04,60.00960154,2026-01-18 16h28.23.321095 +0530
,54,6,6,,,,images/go_right.png,images/stop_right.png,right,0,right,1,0.3632467,None,,,,,,,,,,,,,6,6,54,4,,,,,,,,,170.9770504,,,,,,,,,,,,,170.961055,170.9770504,171.2108618,171.2228127,171.2288364,171.2288364,,171.5956148,,,,,0.3632467,None,0.45,,,,,171.2288364,,,,,,,,,,,,,,,right,1,0.3632467,None,,,,,,,,,,,,P001,26,female,1,2026-01-18_16h28.01.002,SST2,2024.02.04,60.00960154,2026-01-18 16h28.23.321095 +0530
,55,7,6,,,,images/go_left.png,images/stop_left.png,left,0,left,1,0.3724043,None,,,,,,,,,,,,,6,7,55,0,,,,,,,,,171.6103652,,,,,,,,,,,,,171.5957579,171.6103652,171.8441059,171.8559516,171.8620237,171.8620237,,172.2455274,,,,,0.3724043,None,0.45,,,,,171.8620237,,,,,,,,,,,,,,,left,1,0.3724043,None,,,,,,,,,,,,P001,26,female,1,2026-01-18_16h28.01.002,SST2,2024.02.04,60.00960154,2026-01-18 16h28.23.321095 +0530
,56,0,7,,,,images/go_left.png,images/stop_left.png,left,0,left,1,0.394665,None,,,,,,,,,,,,,7,0,56,1,,,,,,,,,172.2601889,,,,,,,,,,,,,172.2456692,172.2601889,172.4939599,172.506152,172.5118875,172.5118875,,172.91233,,,,,0.394665,None,0.45,,,,,172.5118875,,,,,,,,,,,,,,,left,1,0.394665,None,,,,,,,,,,,,P001,26,female,1,2026-01-18_16h28.01.002,SST2,2024.02.04,60.00960154,2026-01-18 16h28.23.321095 +0530
,57,1,7,,,,images/go_right.png,images/stop_right.png,right,0,right,1,0.3830076,None,,,,,,,,,,,,,7,1,57,5,,,,,,,,,172.9266659,,,,,,,,,,,,,172.9124713,172.9266659,173.1607353,173.1733285,173.1785572,173.1785572,,173.5626017,,,,,0.3830076,None,0.45,,,,,173.1785572,,,,,,,,,,,,,,,right,1,0.3830076,None,,,,,,,,,,,,P001,26,female,1,2026-01-18_16h28.01.002,SST2,2024.02.04,60.00960154,2026-01-18 16h28.23.321095 +0530
,58,2,7,,,,images/go_right.png,images/stop_right.png,right,0,right,1,0.3480694,None,,,,,,,,,,,,,7,2,58,4,,,,,,,,,173.5767204,,,,,,,,,,,,,173.5627486,173.5767204,173.8105349,173.8239328,173.8289939,173.8289939,,174.1788975,,,,,0.3480694,None,0.45,,,,,173.8289939,,,,,,,,,,,,,,,right,1,0.3480694,None,,,,,,,,,,,,P001,26,female,1,2026-01-18_16h28.01.002,SST2,2024.02.04,60.00960154,2026-01-18 16h28.23.321095 +0530
,59,3,7,,,,images/go_left.png,images/stop_left.png,left,0,left,1,0.3849185,None,,,,,,,,,,,,,7,3,59,0,,,,,,,,,174.1932625,,,,,,,,,,,,,174.1790704,174.1932625,174.4269851,174.4394497,174.445011,174.445011,,174.8453011,,,,,0.3849185,None,0.45,,,,,174.445011,,,,,,,,,,,,,,,left,1,0.3849185,None,,,,,,,,,,,,P001,26,female,1,2026-01-18_16h28.01.002,SST2,2024.02.04,60.00960154,2026-01-18 16h28.23.321095 +0530
,60,4,7,,,,images/go_left.png,images/stop_left.png,left,0,left,1,0.3635533,None,,,,,,,,,,,,,7,4,60,2,,,,,,,,,174.8598757,,,,,,,,,,,,,174.8454444,174.8598757,175.0937987,175.1054692,175.1116465,175.1116465,,175.4785053,,,,,0.3635533,None,0.45,,,,,175.1116465,,,,,,,,,,,,,,,left,1,0.3635533,None,,,,,,,,,,,,P001,26,female,1,2026-01-18_16h28.01.002,SST2,2024.02.04,60.00960154,2026-01-18 16h28.23.321095 +0530
,61,5,7,,,,images/go_left.png,images/stop_left.png,None,1,left,0,0.346044,None,,,,,,,,,,,,,7,5,61,3,,,,,,,,,175.4931994,,,,,,,,,,,,,175.4786542,175.4931994,175.7267695,175.7390501,175.7448451,175.7448451,,176.0952796,,,,,None,0,0.4,,,,,175.7448451,,,,,,,,,,,,,,,left,0,0.346044,None,,,,,,,,,,,,P001,26,female,1,2026-01-18_16h28.01.002,SST2,2024.02.04,60.00960154,2026-01-18 16h28.23.321095 +0530
,62,6,7,,,,images/go_right.png,images/stop_right.png,None,1,right,0,0.3916052,None,,,,,,,,,,,,,7,6,62,7,,,,,,,,,176.1096904,,,,,,,,,,,,,176.0955233,176.1096904,176.3436657,176.3555275,176.3614572,176.3614572,176.7625677,176.7634359,,,,,None,0,0.35,,,,,176.3614572,,,,,,,,,,,,,,,right,0,0.3916052,None,,,,,,,,,,,,P001,26,female,1,2026-01-18_16h28.01.002,SST2,2024.02.04,60.00960154,2026-01-18 16h28.23.321095 +0530
,63,7,7,,,,images/go_right.png,images/stop_right.png,right,0,right,1,0.3406214,None,,,,,,,,,,,,,7,7,63,6,,,,,,,,,176.7763072,,,,,,,,,,,,,176.7636227,176.7763072,177.0102553,177.0235176,177.0288808,177.0288808,177.3777914,177.3788573,,,,,0.3406214,None,0.35,,,,,177.0288808,,,,,,,,,,,,,,,right,1,0.3406214,None,,,,,,,,,,,,P001,26,female,1,2026-01-18_16h28.01.002,SST2,2024.02.04,60.00960154,2026-01-18 16h28.23.321095 +0530
,,,,,,,,,,,,,,,,,,,,,,,,,,,,,,,,,,,,,,,,,,,,,,,,,,,,,,,,,,,,,,,,,,,,,,,,,,,177.3939149,177.3981836,177.3981836,186.542326,space,9.1284166,None,,,,,,,,,,,,,,,,,,,,P001,26,female,1,2026-01-18_16h28.01.002,SST2,2024.02.04,60.00960154,2026-01-18 16h28.23.321095 +0530
,0,0,0,,,,images/go_right.png,images/stop_right.png,right,0,right,1,0.442554,None,,,,,,,,,,,,,,,,,0,0,0,4,,,,,186.5584065,,,,,,,,,,,,,186.5475115,186.5584065,186.7922451,186.8051235,186.8106657,186.8106657,187.1434084,187.2607099,,,,,0.442554,None,0.35,,,,,186.8106657,,,,,,,,,,,,,,,,,,,right,1,0.442554,None,,,,,,,,P001,26,female,1,2026-01-18_16h28.01.002,SST2,2024.02.04,60.00960154,2026-01-18 16h28.23.321095 +0530
,1,1,0,,,,images/go_left.png,images/stop_left.png,left,0,left,1,0.3339272,None,,,,,,,,,,,,,,,,,0,1,1,0,,,,,187.2748405,,,,,,,,,,,,,187.2608602,187.2748405,187.5087259,187.5209545,187.5266109,187.5266109,187.876698,187.8775573,,,,,0.3339272,None,0.35,,,,,187.5266109,,,,,,,,,,,,,,,,,,,left,1,0.3339272,None,,,,,,,,P001,26,female,1,2026-01-18_16h28.01.002,SST2,2024.02.04,60.00960154,2026-01-18 16h28.23.321095 +0530
,2,2,0,,,,images/go_right.png,images/stop_right.png,None,1,right,0,0.3079983,None,,,,,,,,,,,,,,,,,0,2,2,7,,,,,187.8915061,,,,,,,,,,,,,187.8777154,187.8915061,188.1253562,188.1379917,188.1434908,188.1434908,,188.4600387,,,,,None,0,0.3,,,,,188.1434908,,,,,,,,,,,,,,,,,,,right,0,0.3079983,None,,,,,,,,P001,26,female,1,2026-01-18_16h28.01.002,SST2,2024.02.04,60.00960154,2026-01-18 16h28.23.321095 +0530
,3,3,0,,,,images/go_left.png,images/stop_left.png,None,1,left,0,0.3302649,None,,,,,,,,,,,,,,,,,0,3,3,3,,,,,188.4748421,,,,,,,,,,,,,188.4602592,188.4748421,188.7089582,188.7219645,188.7271923,188.7271923,189.0110405,189.0618152,,,,,None,0,0.25,,,,,188.7271923,,,,,,,,,,,,,,,,,,,left,0,0.3302649,None,,,,,,,,P001,26,female,1,2026-01-18_16h28.01.002,SST2,2024.02.04,60.00960154,2026-01-18 16h28.23.321095 +0530
,4,4,0,,,,images/go_right.png,images/stop_right.png,right,0,right,1,0.3378677,None,,,,,,,,,,,,,,,,,0,4,4,5,,,,,189.0745707,,,,,,,,,,,,,189.062063,189.0745707,189.3085661,189.320789,189.3263219,189.3263219,189.5763137,189.6772485,,,,,0.3378677,None,0.25,,,,,189.3263219,,,,,,,,,,,,,,,,,,,right,1,0.3378677,None,,,,,,,,P001,26,female,1,2026-01-18_16h28.01.002,SST2,2024.02.04,60.00960154,2026-01-18 16h28.23.321095 +0530
,5,5,0,,,,images/go_left.png,images/stop_left.png,left,0,left,1,0.2866623,None,,,,,,,,,,,,,,,,,0,5,5,1,,,,,189.691414,,,,,,,,,,,,,189.6774206,189.691414,189.9250279,189.9422031,189.9475629,189.9475629,190.1931343,190.2438914,,,,,0.2866623,None,0.25,,,,,189.9475629,,,,,,,,,,,,,,,,,,,left,1,0.2866623,None,,,,,,,,P001,26,female,1,2026-01-18_16h28.01.002,SST2,2024.02.04,60.00960154,2026-01-18 16h28.23.321095 +0530
,6,6,0,,,,images/go_left.png,images/stop_left.png,left,0,left,1,0.346621,None,,,,,,,,,,,,,,,,,0,6,6,2,,,,,190.257927,,,,,,,,,,,,,190.2440735,190.257927,190.491863,190.5046935,190.5101744,190.5101744,190.7598161,190.8603308,,,,,0.346621,None,0.25,,,,,190.5101744,,,,,,,,,,,,,,,,,,,left,1,0.346621,None,,,,,,,,P001,26,female,1,2026-01-18_16h28.01.002,SST2,2024.02.04,60.00960154,2026-01-18 16h28.23.321095 +0530
,7,7,0,,,,images/go_right.png,images/stop_right.png,right,0,right,1,0.3607293,None,,,,,,,,,,,,,,,,,0,7,7,6,,,,,190.874406,,,,,,,,,,,,,190.860533,190.874406,191.1083736,191.1209505,191.1263089,191.1263089,191.376173,191.4935675,,,,,0.3607293,None,0.25,,,,,191.1263089,,,,,,,,,,,,,,,,,,,right,1,0.3607293,None,,,,,,,,P001,26,female,1,2026-01-18_16h28.01.002,SST2,2024.02.04,60.00960154,2026-01-18 16h28.23.321095 +0530
,8,0,1,,,,images/go_right.png,images/stop_right.png,None,1,right,0,0.3639599,None,,,,,,,,,,,,,,,,,1,0,8,7,,,,,191.5076615,,,,,,,,,,,,,191.4937087,191.5076615,191.7415913,191.7543763,191.7598115,191.7598115,192.0105579,192.1281529,,,,,None,0,0.2,,,,,191.7598115,,,,,,,,,,,,,,,,,,,right,0,0.3639599,None,,,,,,,,P001,26,female,1,2026-01-18_16h28.01.002,SST2,2024.02.04,60.00960154,2026-01-18 16h28.23.321095 +0530
,9,1,1,,,,images/go_left.png,images/stop_left.png,left,0,left,1,0.3184764,None,,,,,,,,,,,,,,,,,1,1,9,2,,,,,192.1409768,,,,,,,,,,,,,192.1283679,192.1409768,192.3749442,192.3899382,192.3953303,192.3953303,192.5928833,192.726611,,,,,0.3184764,None,0.2,,,,,192.3953303,,,,,,,,,,,,,,,,,,,left,1,0.3184764,None,,,,,,,,P001,26,female,1,2026-01-18_16h28.01.002,SST2,2024.02.04,60.00960154,2026-01-18 16h28.23.321095 +0530
,10,2,1,,,,images/go_right.png,images/stop_right.png,right,0,right,1,0.2980464,None,,,,,,,,,,,,,,,,,1,2,10,5,,,,,192.7409014,,,,,,,,,,,,,192.7267686,192.7409014,192.9747241,192.9866602,192.992668,192.992668,193.1927202,193.2933783,,,,,0.2980464,None,0.2,,,,,192.992668,,,,,,,,,,,,,,,,,,,right,1,0.2980464,None,,,,,,,,P001,26,female,1,2026-01-18_16h28.01.002,SST2,2024.02.04,60.00960154,2026-01-18 16h28.23.321095 +0530
,11,3,1,,,,images/go_left.png,images/stop_left.png,None,1,left,0,0.2871998,None,,,,,,,,,,,,,,,,,1,3,11,3,,,,,193.3074931,,,,,,,,,,,,,193.2935147,193.3074931,193.5413537,193.5531013,193.559246,193.559246,193.7604373,193.8611438,,,,,None,0,0.15,,,,,193.559246,,,,,,,,,,,,,,,,,,,left,0,0.2871998,None,,,,,,,,P001,26,female,1,2026-01-18_16h28.01.002,SST2,2024.02.04,60.00960154,2026-01-18 16h28.23.321095 +0530
,12,4,1,,,,images/go_left.png,images/stop_left.png,left,0,left,1,0.4773629,None,,,,,,,,,,,,,,,,,1,4,12,1,,,,,193.8741561,,,,,,,,,,,,,193.8613727,193.8741561,194.1079168,194.1200299,194.1256421,194.1256421,194.2757911,194.609941,,,,,0.4773629,None,0.15,,,,,194.1256421,,,,,,,,,,,,,,,,,,,left,1,0.4773629,None,,,,,,,,P001,26,female,1,2026-01-18_16h28.01.002,SST2,2024.02.04,60.00960154,2026-01-18 16h28.23.321095 +0530
,13,5,1,,,,images/go_right.png,images/stop_right.png,right,0,right,1,0.3127353,None,,,,,,,,,,,,,,,,,1,5,13,4,,,,,194.6238781,,,,,,,,,,,,,194.6101554,194.6238781,194.8580238,194.8696166,194.8757594,194.8757594,195.0257614,195.1933031,,,,,0.3127353,None,0.15,,,,,194.8757594,,,,,,,,,,,,,,,,,,,right,1,0.3127353,None,,,,,,,,P001,26,female,1,2026-01-18_16h28.01.002,SST2,2024.02.04,60.00960154,2026-01-18 16h28.23.321095 +0530
,14,6,1,,,,images/go_right.png,images/stop_right.png,right,0,right,1,0.3815186,None,,,,,,,,,,,,,,,,,1,6,14,6,,,,,195.2073462,,,,,,,,,,,,,195.193518,195.2073462,195.4410573,195.4528316,195.4590379,195.4590379,195.6089949,195.8432065,,,,,0.3815186,None,0.15,,,,,195.4590379,,,,,,,,,,,,,,,,,,,right,1,0.3815186,None,,,,,,,,P001,26,female,1,2026-01-18_16h28.01.002,SST2,2024.02.04,60.00960154,2026-01-18 16h28.23.321095 +0530
,15,7,1,,,,images/go_left.png,images/stop_left.png,left,0,left,1,0.3576369,None,,,,,,,,,,,,,,,,,1,7,15,0,,,,,195.8571616,,,,,,,,,,,,,195.8433496,195.8571616,196.091033,196.1017532,196.1089958,196.1089958,196.2590201,196.4762409,,,,,0.3576369,None,0.15,,,,,196.1089958,,,,,,,,,,,,,,,,,,,left,1,0.3576369,None,,,,,,,,P001,26,female,1,2026-01-18_16h28.01.002,SST2,2024.02.04,60.00960154,2026-01-18 16h28.23.321095 +0530
,16,0,2,,,,images/go_left.png,images/stop_left.png,left,0,left,1,0.3953658,None,,,,,,,,,,,,,,,,,2,0,16,0,,,,,196.490434,,,,,,,,,,,,,196.4763804,196.490434,196.7243553,196.7352997,196.7423308,196.7423308,196.8921954,197.1430043,,,,,0.3953658,None,0.15,,,,,196.7423308,,,,,,,,,,,,,,,,,,,left,1,0.3953658,None,,,,,,,,P001,26,female,1,2026-01-18_16h28.01.002,SST2,2024.02.04,60.00960154,2026-01-18 16h28.23.321095 +0530
,17,1,2,,,,images/go_left.png,images/stop_left.png,left,0,left,1,0.3345553,None,,,,,,,,,,,,,,,,,2,1,17,2,,,,,197.1569557,,,,,,,,,,,,,197.1431582,197.1569557,197.3910905,197.4020371,197.4086857,197.4086857,197.5588935,197.7595927,,,,,0.3345553,None,0.15,,,,,197.4086857,,,,,,,,,,,,,,,,,,,left,1,0.3345553,None,,,,,,,,P001,26,female,1,2026-01-18_16h28.01.002,SST2,2024.02.04,60.00960154,2026-01-18 16h28.23.321095 +0530
,18,2,2,,,,images/go_right.png,images/stop_right.png,right,0,right,1,0.3648674,None,,,,,,,,,,,,,,,,,2,2,18,4,,,,,197.7735243,,,,,,,,,,,,,197.7597564,197.7735243,198.0076816,198.0191907,198.0254395,198.0254395,198.175445,198.3928179,,,,,0.3648674,None,0.15,,,,,198.0254395,,,,,,,,,,,,,,,,,,,right,1,0.3648674,None,,,,,,,,P001,26,female,1,2026-01-18_16h28.01.002,SST2,2024.02.04,60.00960154,2026-01-18 16h28.23.321095 +0530
,19,3,2,,,,images/go_left.png,images/stop_left.png,left,0,left,1,0.3124759,None,,,,,,,,,,,,,,,,,2,3,19,1,,,,,198.4068294,,,,,,,,,,,,,198.392964,198.4068294,198.6407196,198.6511294,198.6585542,198.6585542,198.8086237,198.9758669,,,,,0.3124759,None,0.15,,,,,198.6585542,,,,,,,,,,,,,,,,,,,left,1,0.3124759,None,,,,,,,,P001,26,female,1,2026-01-18_16h28.01.002,SST2,2024.02.04,60.00960154,2026-01-18 16h28.23.321095 +0530
,20,4,2,,,,images/go_left.png,images/stop_left.png,None,1,None,1,,,,,,,,,,,,,,,,,,,2,4,20,3,,,,,198.9901001,,,,,,,,,,,,,198.9760111,198.9901001,199.2239942,199.2345089,199.2419046,199.2419046,199.3931131,200.6415196,,,,,None,1,0.2,,,,,199.2419046,200.4911892,200.4911892,200.6566276,,,,,,,,,,,,,,,,None,1,,,,,,,,,,P001,26,female,1,2026-01-18_16h28.01.002,SST2,2024.02.04,60.00960154,2026-01-18 16h28.23.321095 +0530
,21,5,2,,,,images/go_right.png,images/stop_right.png,right,0,right,1,0.3071561,None,,,,,,,,,,,,,,,,,2,5,21,5,,,,,200.6566276,,,,,,,,,,,,,200.6417472,200.6566276,200.8905535,200.9015279,200.9082893,200.9082893,201.0918708,201.2255883,,,,,0.3071561,None,0.2,,,,,200.9082893,,,,,,,,,,,,,,,,,,,right,1,0.3071561,None,,,,,,,,P001,26,female,1,2026-01-18_16h28.01.002,SST2,2024.02.04,60.00960154,2026-01-18 16h28.23.321095 +0530
,22,6,2,,,,images/go_right.png,images/stop_right.png,None,1,right,0,0.3251874,None,,,,,,,,,,,,,,,,,2,6,22,7,,,,,201.2397637,,,,,,,,,,,,,201.2257218,201.2397637,201.4736467,201.4854741,201.4914449,201.4914449,201.692826,201.8266733,,,,,None,0,0.15,,,,,201.4914449,,,,,,,,,,,,,,,,,,,right,0,0.3251874,None,,,,,,,,P001,26,female,1,2026-01-18_16h28.01.002,SST2,2024.02.04,60.00960154,2026-01-18 16h28.23.321095 +0530
,23,7,2,,,,images/go_right.png,images/stop_right.png,right,0,right,1,0.3311425,None,,,,,,,,,,,,,,,,,2,7,23,6,,,,,201.8398677,,,,,,,,,,,,,201.8268895,201.8398677,202.0736906,202.0843369,202.091478,202.091478,202.2415635,202.4254991,,,,,0.3311425,None,0.15,,,,,202.091478,,,,,,,,,,,,,,,,,,,right,1,0.3311425,None,,,,,,,,P001,26,female,1,2026-01-18_16h28.01.002,SST2,2024.02.04,60.00960154,2026-01-18 16h28.23.321095 +0530
,24,0,3,,,,images/go_right.png,images/stop_right.png,right,0,right,1,0.3874568,None,,,,,,,,,,,,,,,,,3,0,24,4,,,,,202.4396966,,,,,,,,,,,,,202.4256571,202.4396966,202.6736455,202.6846328,202.6916872,202.6916872,202.8415158,203.0920873,,,,,0.3874568,None,0.15,,,,,202.6916872,,,,,,,,,,,,,,,,,,,right,1,0.3874568,None,,,,,,,,P001,26,female,1,2026-01-18_16h28.01.002,SST2,2024.02.04,60.00960154,2026-01-18 16h28.23.321095 +0530
,25,1,3,,,,images/go_left.png,images/stop_left.png,left,0,left,1,0.3833021,None,,,,,,,,,,,,,,,,,3,1,25,2,,,,,203.1063129,,,,,,,,,,,,,203.0922235,203.1063129,203.3401715,203.3516595,203.3580249,203.3580249,203.5081,203.7423553,,,,,0.3833021,None,0.15,,,,,203.3580249,,,,,,,,,,,,,,,,,,,left,1,0.3833021,None,,,,,,,,P001,26,female,1,2026-01-18_16h28.01.002,SST2,2024.02.04,60.00960154,2026-01-18 16h28.23.321095 +0530
,26,2,3,,,,images/go_right.png,images/stop_right.png,right,0,right,1,0.3641968,None,,,,,,,,,,,,,,,,,3,2,26,5,,,,,203.756214,,,,,,,,,,,,,203.742496,203.756214,203.9900424,204.0014845,204.0079916,204.0079916,204.1579994,204.3752436,,,,,0.3641968,None,0.15,,,,,204.0079916,,,,,,,,,,,,,,,,,,,right,1,0.3641968,None,,,,,,,,P001,26,female,1,2026-01-18_16h28.01.002,SST2,2024.02.04,60.00960154,2026-01-18 16h28.23.321095 +0530
,27,3,3,,,,images/go_right.png,images/stop_right.png,None,1,None,1,,,,,,,,,,,,,,,,,,,3,3,27,7,,,,,204.3894173,,,,,,,,,,,,,204.3753859,204.3894173,204.6233097,204.6349804,204.6412574,204.6412574,204.7922524,206.0411696,,,,,None,1,0.2,,,,,204.6412574,205.8903966,205.8903966,206.055946,,,,,,,,,,,,,,,,None,1,,,,,,,,,,P001,26,female,1,2026-01-18_16h28.01.002,SST2,2024.02.04,60.00960154,2026-01-18 16h28.23.321095 +0530
,28,4,3,,,,images/go_left.png,images/stop_left.png,left,0,left,1,0.3835472,None,,,,,,,,,,,,,,,,,3,4,28,1,,,,,206.055946,,,,,,,,,,,,,206.041477,206.055946,206.2897235,206.3015657,206.3077308,206.3077308,206.507675,206.7084224,,,,,0.3835472,None,0.2,,,,,206.3077308,,,,,,,,,,,,,,,,,,,left,1,0.3835472,None,,,,,,,,P001,26,female,1,2026-01-18_16h28.01.002,SST2,2024.02.04,60.00960154,2026-01-18 16h28.23.321095 +0530
,29,5,3,,,,images/go_left.png,images/stop_left.png,left,0,left,1,0.3545877,None,,,,,,,,,,,,,,,,,3,5,29,0,,,,,206.7224464,,,,,,,,,,,,,206.7085762,206.7224464,206.9562673,206.9674792,206.9740684,206.9740684,207.1740624,207.3417497,,,,,0.3545877,None,0.2,,,,,206.9740684,,,,,,,,,,,,,,,,,,,left,1,0.3545877,None,,,,,,,,P001,26,female,1,2026-01-18_16h28.01.002,SST2,2024.02.04,60.00960154,2026-01-18 16h28.23.321095 +0530
,30,6,3,,,,images/go_right.png,images/stop_right.png,right,0,right,1,0.3681272,None,,,,,,,,,,,,,,,,,3,6,30,6,,,,,207.3556337,,,,,,,,,,,,,207.3419109,207.3556337,207.5895352,207.6002472,207.6073811,207.6073811,207.8075069,207.9917438,,,,,0.3681272,None,0.2,,,,,207.6073811,,,,,,,,,,,,,,,,,,,right,1,0.3681272,None,,,,,,,,P001,26,female,1,2026-01-18_16h28.01.002,SST2,2024.02.04,60.00960154,2026-01-18 16h28.23.321095 +0530
,31,7,3,,,,images/go_left.png,images/stop_left.png,None,1,left,0,0.3278827,None,,,,,,,,,,,,,,,,,3,7,31,3,,,,,208.0057127,,,,,,,,,,,,,207.9918841,208.0057127,208.2394843,208.2503746,208.2573945,208.2573945,208.4585611,208.592798,,,,,None,0,0.15,,,,,208.2573945,,,,,,,,,,,,,,,,,,,left,0,0.3278827,None,,,,,,,,P001,26,female,1,2026-01-18_16h28.01.002,SST2,2024.02.04,60.00960154,2026-01-18 16h28.23.321095 +0530
,32,0,4,,,,images/go_right.png,images/stop_right.png,right,0,right,1,0.3487609,None,,,,,,,,,,,,,,,,,4,0,32,4,,,,,208.6055892,,,,,,,,,,,,,208.5930728,208.6055892,208.8394408,208.8501933,208.8573357,208.8573357,209.0072856,209.2081654,,,,,0.3487609,None,0.15,,,,,208.8573357,,,,,,,,,,,,,,,,,,,right,1,0.3487609,None,,,,,,,,P001,26,female,1,2026-01-18_16h28.01.002,SST2,2024.02.04,60.00960154,2026-01-18 16h28.23.321095 +0530
,33,1,4,,,,images/go_left.png,images/stop_left.png,left,0,left,1,0.3243536,None,,,,,,,,,,,,,,,,,4,1,33,1,,,,,209.2220953,,,,,,,,,,,,,209.2083753,209.2220953,209.4559185,209.4675753,209.4737444,209.4737444,209.6239855,209.8077961,,,,,0.3243536,None,0.15,,,,,209.4737444,,,,,,,,,,,,,,,,,,,left,1,0.3243536,None,,,,,,,,P001,26,female,1,2026-01-18_16h28.01.002,SST2,2024.02.04,60.00960154,2026-01-18 16h28.23.321095 +0530
,34,2,4,,,,images/go_right.png,images/stop_right.png,right,0,right,1,0.2792497,None,,,,,,,,,,,,,,,,,4,2,34,6,,,,,209.8218747,,,,,,,,,,,,,209.8079373,209.8218747,210.0559135,210.0693285,210.0747744,210.0747744,210.2238182,210.3578566,,,,,0.2792497,None,0.15,,,,,210.0747744,,,,,,,,,,,,,,,,,,,right,1,0.2792497,None,,,,,,,,P001,26,female,1,2026-01-18_16h28.01.002,SST2,2024.02.04,60.00960154,2026-01-18 16h28.23.321095 +0530
,35,3,4,,,,images/go_right.png,images/stop_right.png,None,1,left,0,0.0652419,None,,,,,,,,,,,,,,,,,4,3,35,7,,,,,210.3720261,,,,,,,,,,,,,210.3579905,210.3720261,210.6057563,210.6196449,210.6247988,210.6247988,,210.6909143,,,,,None,0,0.1,,,,,210.6247988,,,,,,,,,,,,,,,,,,,left,0,0.0652419,None,,,,,,,,P001,26,female,1,2026-01-18_16h28.01.002,SST2,2024.02.04,60.00960154,2026-01-18 16h28.23.321095 +0530
,36,4,4,,,,images/go_left.png,images/stop_left.png,None,1,None,1,,,,,,,,,,,,,,,,,,,4,4,36,3,,,,,210.7053402,,,,,,,,,,,,,210.6911227,210.7053402,210.9391486,210.9511005,210.9570614,210.9570614,211.058268,212.3067862,,,,,None,1,0.15,,,,,210.9570614,212.2063118,212.2063118,212.3218341,,,,,,,,,,,,,,,,None,1,,,,,,,,,,P001,26,female,1,2026-01-18_16h28.01.002,SST2,2024.02.04,60.00960154,2026-01-18 16h28.23.321095 +0530
,37,5,4,,,,images/go_left.png,images/stop_left.png,left,0,right,0,0.2460346,None,,,,,,,,,,,,,,,,,4,5,37,2,,,,,212.3218341,,,,,,,,,,,,,212.3070101,212.3218341,212.5556498,212.5669659,212.5732874,212.5732874,212.7068774,212.8242994,,,,,None,None,0.15,,,,,212.5732874,,,,,,,,,,,,,,,,,,,right,0,0.2460346,None,,,,,,,,P001,26,female,1,2026-01-18_16h28.01.002,SST2,2024.02.04,60.00960154,2026-01-18 16h28.23.321095 +0530
,38,6,4,,,,images/go_left.png,images/stop_left.png,left,0,left,1,0.4551325,None,,,,,,,,,,,,,,,,,4,6,38,0,,,,,212.8384315,,,,,,,,,,,,,212.824467,212.8384315,213.0720648,213.083604,213.090208,213.090208,213.2401278,213.5574604,,,,,0.4551325,None,0.15,,,,,213.090208,,,,,,,,,,,,,,,,,,,left,1,0.4551325,None,,,,,,,,P001,26,female,1,2026-01-18_16h28.01.002,SST2,2024.02.04,60.00960154,2026-01-18 16h28.23.321095 +0530
,39,7,4,,,,images/go_right.png,images/stop_right.png,right,0,right,1,0.4179326,None,,,,,,,,,,,,,,,,,4,7,39,5,,,,,213.5713273,,,,,,,,,,,,,213.5575995,213.5713273,213.805408,213.8176576,213.8231587,213.8231587,213.9731969,214.257235,,,,,0.4179326,None,0.15,,,,,213.8231587,,,,,,,,,,,,,,,,,,,right,1,0.4179326,None,,,,,,,,P001,26,female,1,2026-01-18_16h28.01.002,SST2,2024.02.04,60.00960154,2026-01-18 16h28.23.321095 +0530
,40,0,5,,,,images/go_right.png,images/stop_right.png,None,1,None,1,,,,,,,,,,,,,,,,,,,5,0,40,7,,,,,214.2713422,,,,,,,,,,,,,214.2573701,214.2713422,214.5053941,214.5181592,214.523507,214.523507,214.674456,215.9230867,,,,,None,1,0.2,,,,,214.523507,215.7722971,215.7722971,215.9380504,,,,,,,,,,,,,,,,None,1,,,,,,,,,,P001,26,female,1,2026-01-18_16h28.01.002,SST2,2024.02.04,60.00960154,2026-01-18 16h28.23.321095 +0530
,41,1,5,,,,images/go_left.png,images/stop_left.png,left,0,left,1,0.3375722,None,,,,,,,,,,,,,,,,,5,1,41,1,,,,,215.9380504,,,,,,,,,,,,,215.9233382,215.9380504,216.1716102,216.1837649,216.1896789,216.1896789,216.3729842,216.5404397,,,,,0.3375722,None,0.2,,,,,216.1896789,,,,,,,,,,,,,,,,,,,left,1,0.3375722,None,,,,,,,,P001,26,female,1,2026-01-18_16h28.01.002,SST2,2024.02.04,60.00960154,2026-01-18 16h28.23.321095 +0530
,42,2,5,,,,images/go_right.png,images/stop_right.png,right,0,right,1,0.370021,None,,,,,,,,,,,,,,,,,5,2,42,5,,,,,216.5544582,,,,,,,,,,,,,216.5406699,216.5544582,216.7884,216.8018963,216.8072033,216.8072033,217.0063687,217.1903141,,,,,0.370021,None,0.2,,,,,216.8072033,,,,,,,,,,,,,,,,,,,right,1,0.370021,None,,,,,,,,P001,26,female,1,2026-01-18_16h28.01.002,SST2,2024.02.04,60.00960154,2026-01-18 16h28.23.321095 +0530
,43,3,5,,,,images/go_right.png,images/stop_right.png,right,0,right,1,0.3827173,None,,,,,,,,,,,,,,,,,5,3,43,4,,,,,217.2043698,,,,,,,,,,,,,217.1904524,217.2043698,217.4383193,217.450331,217.4561791,217.4561791,217.6563757,217.8403409,,,,,0.3827173,None,0.2,,,,,217.4561791,,,,,,,,,,,,,,,,,,,right,1,0.3827173,None,,,,,,,,P001,26,female,1,2026-01-18_16h28.01.002,SST2,2024.02.04,60.00960154,2026-01-18 16h28.23.321095 +0530
,44,4,5,,,,images/go_left.png,images/stop_left.png,left,0,left,1,0.3341364,None,,,,,,,,,,,,,,,,,5,4,44,2,,,,,217.854543,,,,,,,,,,,,,217.8404828,217.854543,218.0884179,218.1004559,218.1061249,218.1061249,218.3063172,218.4569185,,,,,0.3341364,None,0.2,,,,,218.1061249,,,,,,,,,,,,,,,,,,,left,1,0.3341364,None,,,,,,,,P001,26,female,1,2026-01-18_16h28.01.002,SST2,2024.02.04,60.00960154,2026-01-18 16h28.23.321095 +0530
,45,5,5,,,,images/go_left.png,images/stop_left.png,None,1,left,0,0.3633978,None,,,,,,,,,,,,,,,,,5,5,45,3,,,,,218.4710207,,,,,,,,,,,,,218.4570893,218.4710207,218.7047376,218.716606,218.722597,218.722597,218.9236041,219.0912339,,,,,None,0,0.15,,,,,218.722597,,,,,,,,,,,,,,,,,,,left,0,0.3633978,None,,,,,,,,P001,26,female,1,2026-01-18_16h28.01.002,SST2,2024.02.04,60.00960154,2026-01-18 16h28.23.321095 +0530
,46,6,5,,,,images/go_right.png,images/stop_right.png,right,0,right,1,0.3956171,None,,,,,,,,,,,,,,,,,5,6,46,6,,,,,219.1041725,,,,,,,,,,,,,219.0914229,219.1041725,219.3380895,219.351114,219.3564532,219.3564532,219.5059944,219.756972,,,,,0.3956171,None,0.15,,,,,219.3564532,,,,,,,,,,,,,,,,,,,right,1,0.3956171,None,,,,,,,,P001,26,female,1,2026-01-18_16h28.01.002,SST2,2024.02.04,60.00960154,2026-01-18 16h28.23.321095 +0530
,47,7,5,,,,images/go_left.png,images/stop_left.png,left,0,left,1,0.3413128,None,,,,,,,,,,,,,,,,,5,7,47,0,,,,,219.7707319,,,,,,,,,,,,,219.7571327,219.7707319,220.0045788,220.0164302,220.0223551,220.0223551,220.1725851,220.3733159,,,,,0.3413128,None,0.15,,,,,220.0223551,,,,,,,,,,,,,,,,,,,left,1,0.3413128,None,,,,,,,,P001,26,female,1,2026-01-18_16h28.01.002,SST2,2024.02.04,60.00960154,2026-01-18 16h28.23.321095 +0530
,48,0,6,,,,images/go_left.png,images/stop_left.png,None,1,None,1,,,,,,,,,,,,,,,,,,,6,0,48,3,,,,,220.387383,,,,,,,,,,,,,220.373477,220.387383,220.6210737,220.6330624,220.6391282,220.6391282,220.790312,222.0389633,,,,,None,1,0.2,,,,,220.6391282,221.8883278,221.8883278,222.0539283,,,,,,,,,,,,,,,,None,1,,,,,,,,,,P001,26,female,1,2026-01-18_16h28.01.002,SST2,2024.02.04,60.00960154,2026-01-18 16h28.23.321095 +0530
,49,1,6,,,,images/go_right.png,images/stop_right.png,None,1,right,0,0.3319524,None,,,,,,,,,,,,,,,,,6,1,49,7,,,,,222.0539283,,,,,,,,,,,,,222.0391968,222.0539283,222.2876255,222.300684,222.3060681,222.3060681,222.4901165,222.640812,,,,,None,0,0.15,,,,,222.3060681,,,,,,,,,,,,,,,,,,,right,0,0.3319524,None,,,,,,,,P001,26,female,1,2026-01-18_16h28.01.002,SST2,2024.02.04,60.00960154,2026-01-18 16h28.23.321095 +0530
,50,2,6,,,,images/go_left.png,images/stop_left.png,left,0,left,1,0.3837945,None,,,,,,,,,,,,,,,,,6,2,50,0,,,,,222.6537882,,,,,,,,,,,,,222.641009,222.6537882,222.8875778,222.9003247,222.9054919,222.9054919,223.0555956,223.3063158,,,,,0.3837945,None,0.15,,,,,222.9054919,,,,,,,,,,,,,,,,,,,left,1,0.3837945,None,,,,,,,,P001,26,female,1,2026-01-18_16h28.01.002,SST2,2024.02.04,60.00960154,2026-01-18 16h28.23.321095 +0530
,51,3,6,,,,images/go_right.png,images/stop_right.png,right,0,right,1,0.4538109,None,,,,,,,,,,,,,,,,,6,3,51,4,,,,,223.3201739,,,,,,,,,,,,,223.3064836,223.3201739,223.5541906,223.566725,223.5718851,223.5718851,223.7221652,224.0395285,,,,,0.4538109,None,0.15,,,,,223.5718851,,,,,,,,,,,,,,,,,,,right,1,0.4538109,None,,,,,,,,P001,26,female,1,2026-01-18_16h28.01.002,SST2,2024.02.04,60.00960154,2026-01-18 16h28.23.321095 +0530
,52,4,6,,,,images/go_left.png,images/stop_left.png,left,0,left,1,0.4271693,None,,,,,,,,,,,,,,,,,6,4,52,2,,,,,224.0535948,,,,,,,,,,,,,224.0396769,224.0535948,224.287474,224.299166,224.3052779,224.3052779,224.45546,224.7392333,,,,,0.4271693,None,0.15,,,,,224.3052779,,,,,,,,,,,,,,,,,,,left,1,0.4271693,None,,,,,,,,P001,26,female,1,2026-01-18_16h28.01.002,SST2,2024.02.04,60.00960154,2026-01-18 16h28.23.321095 +0530
,53,5,6,,,,images/go_right.png,images/stop_right.png,right,0,right,1,0.3836698,None,,,,,,,,,,,,,,,,,6,5,53,5,,,,,224.7535318,,,,,,,,,,,,,224.739385,224.7535318,224.9873307,224.9994626,225.0052139,225.0052139,225.1552274,225.4059474,,,,,0.3836698,None,0.15,,,,,225.0052139,,,,,,,,,,,,,,,,,,,right,1,0.3836698,None,,,,,,,,P001,26,female,1,2026-01-18_16h28.01.002,SST2,2024.02.04,60.00960154,2026-01-18 16h28.23.321095 +0530
,54,6,6,,,,images/go_left.png,images/stop_left.png,left,0,left,1,0.3392632,None,,,,,,,,,,,,,,,,,6,6,54,1,,,,,225.4199044,,,,,,,,,,,,,225.4061529,225.4199044,225.6539186,225.665921,225.6718913,225.6718913,225.82188,226.0225739,,,,,0.3392632,None,0.15,,,,,225.6718913,,,,,,,,,,,,,,,,,,,left,1,0.3392632,None,,,,,,,,P001,26,female,1,2026-01-18_16h28.01.002,SST2,2024.02.04,60.00960154,2026-01-18 16h28.23.321095 +0530
,55,7,6,,,,images/go_right.png,images/stop_right.png,right,0,right,1,0.5678775,None,,,,,,,,,,,,,,,,,6,7,55,6,,,,,226.0365784,,,,,,,,,,,,,226.022797,226.0365784,226.2704233,226.2830736,226.2885908,226.2885908,226.438501,226.8724719,,,,,0.5678775,None,0.15,,,,,226.2885908,,,,,,,,,,,,,,,,,,,right,1,0.5678775,None,,,,,,,,P001,26,female,1,2026-01-18_16h28.01.002,SST2,2024.02.04,60.00960154,2026-01-18 16h28.23.321095 +0530
,56,0,7,,,,images/go_left.png,images/stop_left.png,left,0,left,1,0.3495028,None,,,,,,,,,,,,,,,,,7,0,56,0,,,,,226.886561,,,,,,,,,,,,,226.8726311,226.886561,227.1204773,227.1326904,227.1382627,227.1382627,227.2883575,227.4892446,,,,,0.3495028,None,0.15,,,,,227.1382627,,,,,,,,,,,,,,,,,,,left,1,0.3495028,None,,,,,,,,P001,26,female,1,2026-01-18_16h28.01.002,SST2,2024.02.04,60.00960154,2026-01-18 16h28.23.321095 +0530
,57,1,7,,,,images/go_right.png,images/stop_right.png,None,1,None,1,,,,,,,,,,,,,,,,,,,7,1,57,7,,,,,227.5031913,,,,,,,,,,,,,227.489393,227.5031913,227.7370095,227.7495085,227.7549062,227.7549062,227.9061141,229.1547882,,,,,None,1,0.2,,,,,227.7549062,229.0041591,229.0041591,229.169438,,,,,,,,,,,,,,,,None,1,,,,,,,,,,P001,26,female,1,2026-01-18_16h28.01.002,SST2,2024.02.04,60.00960154,2026-01-18 16h28.23.321095 +0530
,58,2,7,,,,images/go_right.png,images/stop_right.png,right,0,right,1,0.3511824,None,,,,,,,,,,,,,,,,,7,2,58,4,,,,,229.169438,,,,,,,,,,,,,229.1549656,229.169438,229.4036126,229.4155318,229.4212941,229.4212941,229.6047645,229.7887859,,,,,0.3511824,None,0.2,,,,,229.4212941,,,,,,,,,,,,,,,,,,,right,1,0.3511824,None,,,,,,,,P001,26,female,1,2026-01-18_16h28.01.002,SST2,2024.02.04,60.00960154,2026-01-18 16h28.23.321095 +0530
,59,3,7,,,,images/go_left.png,images/stop_left.png,left,0,left,1,0.3085126,None,,,,,,,,,,,,,,,,,7,3,59,1,,,,,229.8029715,,,,,,,,,,,,,229.7889258,229.8029715,230.0368447,230.0485114,230.0546169,230.0546169,230.2546048,230.3719537,,,,,0.3085126,None,0.2,,,,,230.0546169,,,,,,,,,,,,,,,,,,,left,1,0.3085126,None,,,,,,,,P001,26,female,1,2026-01-18_16h28.01.002,SST2,2024.02.04,60.00960154,2026-01-18 16h28.23.321095 +0530
,60,4,7,,,,images/go_left.png,images/stop_left.png,None,1,None,1,,,,,,,,,,,,,,,,,,,7,4,60,3,,,,,230.3860473,,,,,,,,,,,,,230.3721478,230.3860473,230.6200573,230.6319867,230.6378949,230.6378949,230.8390261,232.0877079,,,,,None,1,0.25,,,,,230.6378949,231.8871648,231.8871648,232.1026661,,,,,,,,,,,,,,,,None,1,,,,,,,,,,P001,26,female,1,2026-01-18_16h28.01.002,SST2,2024.02.04,60.00960154,2026-01-18 16h28.23.321095 +0530
,61,5,7,,,,images/go_left.png,images/stop_left.png,left,0,left,1,0.448461,None,,,,,,,,,,,,,,,,,7,5,61,2,,,,,232.1026661,,,,,,,,,,,,,232.0879203,232.1026661,232.3365948,232.3498302,232.355194,232.355194,232.5876967,232.8050712,,,,,0.448461,None,0.25,,,,,232.355194,,,,,,,,,,,,,,,,,,,left,1,0.448461,None,,,,,,,,P001,26,female,1,2026-01-18_16h28.01.002,SST2,2024.02.04,60.00960154,2026-01-18 16h28.23.321095 +0530
,62,6,7,,,,images/go_right.png,images/stop_right.png,right,0,right,1,0.4590977,None,,,,,,,,,,,,,,,,,7,6,62,5,,,,,232.8191142,,,,,,,,,,,,,232.8052192,232.8191142,233.0530394,233.0652851,233.0706537,233.0706537,233.3208736,233.5383253,,,,,0.4590977,None,0.25,,,,,233.0706537,,,,,,,,,,,,,,,,,,,right,1,0.4590977,None,,,,,,,,P001,26,female,1,2026-01-18_16h28.01.002,SST2,2024.02.04,60.00960154,2026-01-18 16h28.23.321095 +0530
,63,7,7,,,,images/go_right.png,images/stop_right.png,right,0,left,0,0.3119324,None,,,,,,,,,,,,,,,,,7,7,63,6,,,,,233.5523725,,,,,,,,,,,,,233.5384607,233.5523725,233.786247,233.7979573,233.8041459,233.8041459,234.0541953,234.1214109,,,,,None,None,0.25,,,,,233.8041459,,,,,,,,,,,,,,,,,,,left,0,0.3119324,None,,,,,,,,P001,26,female,1,2026-01-18_16h28.01.002,SST2,2024.02.04,60.00960154,2026-01-18 16h28.23.321095 +0530
