text,thisN,thisTrialN,thisRepN,key_resp_inst.keys,key_resp_inst.rt,key_resp_inst.duration,go_image,stop_image,corr_resp,is_stop,key_resp.keys,key_resp.corr,key_resp.rt,key_resp.duration,Trial_loop.thisRepN,Trial_loop.thisTrialN,Trial_loop.thisN,Trial_loop.thisIndex,practice_trial_loop.thisRepN,practice_trial_loop.thisTrialN,practice_trial_loop.thisN,practice_trial_loop.thisIndex,exp_trial_1.thisRepN,exp_trial_1.thisTrialN,exp_trial_1.thisN,exp_trial_1.thisIndex,exp_trials_2.thisRepN,exp_trials_2.thisTrialN,exp_trials_2.thisN,exp_trials_2.thisIndex,exp_trials_3.thisRepN,exp_trials_3.thisTrialN,exp_trials_3.thisN,exp_trials_3.thisIndex,exp_trials_4.thisRepN,exp_trials_4.thisTrialN,exp_trials_4.thisN,exp_trials_4.thisIndex,thisRow.t,notes,Welcome.started,Welcome_text.started,Welcome.stopped,Instruction.started,Inst_text.started,key_resp_inst.started,Instruction.stopped,Trial_loop.key_resp_inst.keys,Trial_loop.key_resp_inst.rt,Trial_loop.key_resp_inst.duration,fixation.started,image.started,fixation.stopped,Stimulus.started,go_arrow.started,key_resp.started,stop_arrow.started,Stimulus.stopped,practice_trial_loop.key_resp.keys,practice_trial_loop.key_resp.corr,practice_trial_loop.key_resp.rt,practice_trial_loop.key_resp.duration,go_rt,stop_success,SSD,Feedback.started,fdback_text.started,fdback_text.stopped,Feedback.stopped,image.stopped,go_arrow.stopped,key_resp.stopped,stop_arrow.stopped,block_feedback.started,fb_text.started,key_resp_4.started,block_feedback.stopped,key_resp_4.keys,key_resp_4.rt,key_resp_4.duration,exp_trial_1.key_resp.keys,exp_trial_1.key_resp.corr,exp_trial_1.key_resp.rt,exp_trial_1.key_resp.duration,exp_trials_2.key_resp.keys,exp_trials_2.key_resp.corr,exp_trials_2.key_resp.rt,exp_trials_2.key_resp.duration,exp_trials_3.key_resp.keys,exp_trials_3.key_resp.corr,exp_trials_3.key_resp.rt,exp_trials_3.key_resp.duration,exp_trials_4.key_resp.keys,exp_trials_4.key_resp.corr,exp_trials_4.key_resp.rt,exp_trials_4.key_resp.duration,Thank_you.started,thankyou_text.started,Thank_you.stopped,participant,Age,Gender,session,date,expName,psychopyVersion,frameRate,expStart
,,,,,,,,,,,,,,,,,,,,,,,,,,,,,,,,,,,,,,,,,0.002889,0.0065295,3.0015846,,,,,,,,,,,,,,,,,,,,,,,,,,,,,,,,,,,,,,,,,,,,,,,,,,,,,,,,,P002,25,female,1,2026-01-18_16h35.38.433,SST2,2024.02.04,59.92265184,2026-01-18 16h36.00.359619 +0530
"Your main task is to respond to white arrows (with a black border) that appear on the screen.

Press the LEFT ARROW KEY with the right index finger when you see a LEFT ARROW and press the RIGHT ARROW KEY with the right ring finger when you see a RIGHT ARROW.

Thus, left arrow = left key and right arrow = right key. 
Press SPACEBAR"" to continue""",0,0,0,space,1.3284464,None,,,,,,,,,0,0,0,0,,,,,,,,,,,,,,,,,,,,,3.0353653,,,,,3.0303293,3.0353653,3.0353653,4.4358964,space,1.3284464,None,,,,,,,,,,,,,,,,,,,,,,,,,,,,,,,,,,,,,,,,,,,,,,,,,,P002,25,female,1,2026-01-18_16h35.38.433,SST2,2024.02.04,59.92265184,2026-01-18 16h36.00.359619 +0530
"However, on some trials (stop-signal trials) the arrows will turn red after a variable delay. You have to stop your response when this happens.

On approximately half of the stop-signal trials, the red stop signal will appear soon and you will notice that it will be easy to stop your response.

On the other half of the trials, the red stop signals will appear late and it will become very difficult or even impossible to stop your response.

Press SPACEBAR"" to continue""",1,1,0,space,0.9844013,None,,,,,,,,,0,1,1,1,,,,,,,,,,,,,,,,,,,,,4.4614762,,,,,4.4568524,4.4614762,4.4614762,5.4524766,space,0.9844013,None,,,,,,,,,,,,,,,,,,,,,,,,,,,,,,,,,,,,,,,,,,,,,,,,,,P002,25,female,1,2026-01-18_16h35.38.433,SST2,2024.02.04,59.92265184,2026-01-18 16h36.00.359619 +0530
"Nevertheless, it is really important that you do not wait for the stop signal to occur and that you respond as quickly and as accurately as possible to the white arrows.

After all, if you start waiting for the red stop signals, then the program will delay their presentation. This will result in long reaction times.

We will start with a short practice block in which you will receive immediate feedback. You will no longer receive immediate feedback in the experimental phase.

Press SPACEBAR"" to continue""",2,2,0,space,1.6628636,None,,,,,,,,,0,2,2,2,,,,,,,,,,,,,,,,,,,,,5.479157,,,,,5.4745997,5.479157,5.479157,7.1522952,space,1.6628636,None,,,,,,,,,,,,,,,,,,,,,,,,,,,,,,,,,,,,,,,,,,,,,,,,,,P002,25,female,1,2026-01-18_16h35.38.433,SST2,2024.02.04,59.92265184,2026-01-18 16h36.00.359619 +0530
"However, at the end of each experimental block, there will be a 15 second break. During this break, we will show you some information about your mean performance in the previous block.

The experiment consists of 1 practice block and 4 experimental blocks

Press SPACEBAR"" to begin the experiment""",3,3,0,space,0.6821952,None,,,,,,,,,0,3,3,3,,,,,,,,,,,,,,,,,,,,,7.171653,,,,,7.1675592,7.171653,7.171653,7.8685216,space,0.6821952,None,,,,,,,,,,,,,,,,,,,,,,,,,,,,,,,,,,,,,,,,,,,,,,,,,,P002,25,female,1,2026-01-18_16h35.38.433,SST2,2024.02.04,59.92265184,2026-01-18 16h36.00.359619 +0530
,0,0,0,,,,images/go_right.png,images/stop_right.png,right,0,right,1,0.3822182,None,,,,,0,0,0,5,,,,,,,,,,,,,,,,,7.9202811,,,,,,,,,,,,7.873235,7.9202811,8.1345909,8.1509115,8.1574607,8.1574607,8.3198595,8.5541873,right,1,0.3822182,None,0.3822182,None,0.2,8.5563336,8.5674468,9.3176619,9.301168,,,,,,,,,,,,,,,,,,,,,,,,,,,,,,,P002,25,female,1,2026-01-18_16h35.38.433,SST2,2024.02.04,59.92265184,2026-01-18 16h36.00.359619 +0530
,1,1,0,,,,images/go_right.png,images/stop_right.png,right,0,right,1,0.383971,None,,,,,0,1,1,4,,,,,,,,,,,,,,,,,9.3176619,,,,,,,,,,,,9.3012994,9.3176619,9.5514965,9.5639142,9.5694066,9.5694066,9.7693454,9.9700016,right,1,0.383971,None,0.383971,None,0.2,9.9700664,9.9838442,10.7340615,10.7176125,9.5694066,,,,,,,,,,,,,,,,,,,,,,,,,,,,,,P002,25,female,1,2026-01-18_16h35.38.433,SST2,2024.02.04,59.92265184,2026-01-18 16h36.00.359619 +0530
,2,2,0,,,,images/go_right.png,images/stop_right.png,right,0,right,1,0.379951,None,,,,,0,2,2,6,,,,,,,,,,,,,,,,,10.7340615,,,,,,,,,,,,10.7177338,10.7340615,10.9680094,10.98063,10.9861232,10.9861232,11.1858364,11.3700456,right,1,0.379951,None,0.379951,None,0.2,11.3701192,11.3836966,12.1339277,12.1174414,10.9861232,,,,,,,,,,,,,,,,,,,,,,,,,,,,,,P002,25,female,1,2026-01-18_16h35.38.433,SST2,2024.02.04,59.92265184,2026-01-18 16h36.00.359619 +0530
,3,3,0,,,,images/go_left.png,images/stop_left.png,left,0,left,1,0.3982424,None,,,,,0,3,3,2,,,,,,,,,,,,,,,,,12.1339277,,,,,,,,,,,,12.1175551,12.1339277,12.3678342,12.3800073,12.3856329,12.3856329,12.5858341,12.7864335,left,1,0.3982424,None,0.3982424,None,0.2,12.786528,12.8001677,13.5505497,13.5339142,12.3856329,,,,,,,,,,,,,,,,,,,,,,,,,,,,,,P002,25,female,1,2026-01-18_16h35.38.433,SST2,2024.02.04,59.92265184,2026-01-18 16h36.00.359619 +0530
,4,4,0,,,,images/go_right.png,images/stop_right.png,None,1,None,1,,,,,,,0,4,4,7,,,,,,,,,,,,,,,,,13.5505497,,,,,,,,,,,,13.5340377,13.5505497,13.7841931,13.7969174,13.8020405,13.8020405,14.0032294,15.2518652,None,1,,,None,1,0.25,15.2519825,15.2664631,16.0167698,16.0002394,13.8020405,15.0514919,15.0514919,15.2664631,,,,,,,,,,,,,,,,,,,,,,,,,,,P002,25,female,1,2026-01-18_16h35.38.433,SST2,2024.02.04,59.92265184,2026-01-18 16h36.00.359619 +0530
,5,5,0,,,,images/go_left.png,images/stop_left.png,None,1,left,0,0.3673761,None,,,,,0,5,5,3,,,,,,,,,,,,,,,,,16.0167698,,,,,,,,,,,,16.0003684,16.0167698,16.2505391,16.2632309,16.2685198,16.2685198,16.5030184,16.6372155,left,0,0.3673761,None,None,0,0.2,16.640759,16.6495989,17.399741,17.3833674,16.2685198,,,,,,,,,,,,,,,,,,,,,,,,,,,,,,P002,25,female,1,2026-01-18_16h35.38.433,SST2,2024.02.04,59.92265184,2026-01-18 16h36.00.359619 +0530
,6,6,0,,,,images/go_left.png,images/stop_left.png,left,0,left,1,0.3414652,None,,,,,0,6,6,0,,,,,,,,,,,,,,,,,17.399741,,,,,,,,,,,,17.3834861,17.399741,17.6337187,17.6458743,17.6515757,17.6515757,17.8517121,18.0022938,left,1,0.3414652,None,0.3414652,None,0.2,18.0040905,18.0161372,18.7664855,18.7497587,17.6515757,,,,,,,,,,,,,,,,,,,,,,,,,,,,,,P002,25,female,1,2026-01-18_16h35.38.433,SST2,2024.02.04,59.92265184,2026-01-18 16h36.00.359619 +0530
,7,7,0,,,,images/go_left.png,images/stop_left.png,left,0,left,1,0.3838842,None,,,,,0,7,7,1,,,,,,,,,,,,,,,,,18.7664855,,,,,,,,,,,,18.7498789,18.7664855,19.0003971,19.0126163,19.0181974,19.0181974,19.2184099,19.4190156,left,1,0.3838842,None,0.3838842,None,0.2,19.4190895,19.4326601,20.1828995,20.1664357,19.0181974,,,,,,,,,,,,,,,,,,,,,,,,,,,,,,P002,25,female,1,2026-01-18_16h35.38.433,SST2,2024.02.04,59.92265184,2026-01-18 16h36.00.359619 +0530
,8,0,1,,,,images/go_right.png,images/stop_right.png,right,0,right,1,0.4097383,None,,,,,1,0,8,6,,,,,,,,,,,,,,,,,20.1828995,,,,,,,,,,,,20.1665502,20.1828995,20.4167893,20.4287824,20.4345974,20.4345974,20.6348408,20.8521611,right,1,0.4097383,None,0.4097383,None,0.2,20.8522258,20.8658478,21.6161163,21.5995419,20.4345974,,,,,,,,,,,,,,,,,,,,,,,,,,,,,,P002,25,female,1,2026-01-18_16h35.38.433,SST2,2024.02.04,59.92265184,2026-01-18 16h36.00.359619 +0530
,9,1,1,,,,images/go_right.png,images/stop_right.png,None,1,right,0,0.3932209,None,,,,,1,1,9,7,,,,,,,,,,,,,,,,,21.6161163,,,,,,,,,,,,21.5996783,21.6161163,21.8499692,21.8624763,21.8678208,21.8678208,22.0689282,22.2697484,right,0,0.3932209,None,None,0,0.15,22.2719353,22.2823721,23.032581,23.0161811,21.8678208,,,,,,,,,,,,,,,,,,,,,,,,,,,,,,P002,25,female,1,2026-01-18_16h35.38.433,SST2,2024.02.04,59.92265184,2026-01-18 16h36.00.359619 +0530
,10,2,1,,,,images/go_left.png,images/stop_left.png,left,0,left,1,0.3550209,None,,,,,1,2,10,1,,,,,,,,,,,,,,,,,23.032581,,,,,,,,,,,,23.0163068,23.032581,23.2664086,23.2785432,23.2843499,23.2843499,23.4344162,23.65155,left,1,0.3550209,None,0.3550209,None,0.15,23.653405,23.6654292,24.4156952,24.398977,23.2843499,,,,,,,,,,,,,,,,,,,,,,,,,,,,,,P002,25,female,1,2026-01-18_16h35.38.433,SST2,2024.02.04,59.92265184,2026-01-18 16h36.00.359619 +0530
,11,3,1,,,,images/go_right.png,images/stop_right.png,right,0,right,1,0.5293619,None,,,,,1,3,11,4,,,,,,,,,,,,,,,,,24.4156952,,,,,,,,,,,,24.3990985,24.4156952,24.6494867,24.6617329,24.6674047,24.6674047,24.8175165,25.2015226,right,1,0.5293619,None,0.5293619,None,0.15,25.2015853,25.2152535,25.9654808,25.9488302,24.6674047,,,,,,,,,,,,,,,,,,,,,,,,,,,,,,P002,25,female,1,2026-01-18_16h35.38.433,SST2,2024.02.04,59.92265184,2026-01-18 16h36.00.359619 +0530
,12,4,1,,,,images/go_left.png,images/stop_left.png,None,1,None,1,,,,,,,1,4,12,3,,,,,,,,,,,,,,,,,25.9654808,,,,,,,,,,,,25.9489491,25.9654808,26.1992296,26.2123987,26.2179165,26.2179165,26.3684239,27.6171471,None,1,,,None,1,0.2,27.6172871,27.6315717,28.3819615,28.3654346,26.2179165,27.4665121,27.4665121,27.6315717,,,,,,,,,,,,,,,,,,,,,,,,,,,P002,25,female,1,2026-01-18_16h35.38.433,SST2,2024.02.04,59.92265184,2026-01-18 16h36.00.359619 +0530
,13,5,1,,,,images/go_right.png,images/stop_right.png,right,0,right,1,0.3755415,None,,,,,1,5,13,5,,,,,,,,,,,,,,,,,28.3819615,,,,,,,,,,,,28.3655473,28.3819615,28.6156688,28.6276327,28.6336703,28.6336703,28.8169647,29.0176396,right,1,0.3755415,None,0.3755415,None,0.2,29.0177075,29.0313589,29.7817081,29.7654661,28.6336703,,,,,,,,,,,,,,,,,,,,,,,,,,,,,,P002,25,female,1,2026-01-18_16h35.38.433,SST2,2024.02.04,59.92265184,2026-01-18 16h36.00.359619 +0530
,14,6,1,,,,images/go_left.png,images/stop_left.png,left,0,left,1,0.3703323,None,,,,,1,6,14,2,,,,,,,,,,,,,,,,,29.7817081,,,,,,,,,,,,29.7656119,29.7817081,30.0155529,30.0282068,30.0336642,30.0336642,30.2335183,30.4174925,left,1,0.3703323,None,0.3703323,None,0.2,30.4175574,30.4312248,31.1815041,31.1653425,30.0336642,,,,,,,,,,,,,,,,,,,,,,,,,,,,,,P002,25,female,1,2026-01-18_16h35.38.433,SST2,2024.02.04,59.92265184,2026-01-18 16h36.00.359619 +0530
,15,7,1,,,,images/go_left.png,images/stop_left.png,left,0,left,1,0.3610241,None,,,,,1,7,15,0,,,,,,,,,,,,,,,,,31.1815041,,,,,,,,,,,,31.1655265,31.1815041,31.4154259,31.4282614,31.4335061,31.4335061,31.6333227,31.8004385,left,1,0.3610241,None,0.3610241,None,0.2,31.8005038,31.8143323,32.5647815,32.5479301,31.4335061,,,,,,,,,,,,,,,,,,,,,,,,,,,,,,P002,25,female,1,2026-01-18_16h35.38.433,SST2,2024.02.04,59.92265184,2026-01-18 16h36.00.359619 +0530
,16,0,2,,,,images/go_right.png,images/stop_right.png,right,0,right,1,0.3998416,None,,,,,2,0,16,6,,,,,,,,,,,,,,,,,32.5647815,,,,,,,,,,,,32.5480433,32.5647815,32.7985175,32.8116158,32.8168897,32.8168897,33.016429,33.2337344,right,1,0.3998416,None,0.3998416,None,0.2,33.2337989,33.2474721,33.9978518,33.9812704,32.8168897,,,,,,,,,,,,,,,,,,,,,,,,,,,,,,P002,25,female,1,2026-01-18_16h35.38.433,SST2,2024.02.04,59.92265184,2026-01-18 16h36.00.359619 +0530
,17,1,2,,,,images/go_left.png,images/stop_left.png,left,0,left,1,0.3799849,None,,,,,2,1,17,1,,,,,,,,,,,,,,,,,33.9978518,,,,,,,,,,,,33.9813876,33.9978518,34.2317325,34.2447409,34.2499285,34.2499285,34.4494274,34.6336736,left,1,0.3799849,None,0.3799849,None,0.2,34.6337387,34.6471639,35.3976609,35.3812166,34.2499285,,,,,,,,,,,,,,,,,,,,,,,,,,,,,,P002,25,female,1,2026-01-18_16h35.38.433,SST2,2024.02.04,59.92265184,2026-01-18 16h36.00.359619 +0530
,18,2,2,,,,images/go_left.png,images/stop_left.png,None,1,None,1,,,,,,,2,2,18,3,,,,,,,,,,,,,,,,,35.3976609,,,,,,,,,,,,35.3813764,35.3976609,35.6315006,35.6440561,35.6492325,35.6492325,35.8506657,37.0991502,None,1,,,None,1,0.25,37.0992643,37.1136914,37.8639922,37.8475331,35.6492325,36.8984164,36.8984164,37.1136914,,,,,,,,,,,,,,,,,,,,,,,,,,,P002,25,female,1,2026-01-18_16h35.38.433,SST2,2024.02.04,59.92265184,2026-01-18 16h36.00.359619 +0530
,19,3,2,,,,images/go_right.png,images/stop_right.png,right,0,right,1,0.3822496,None,,,,,2,3,19,5,,,,,,,,,,,,,,,,,37.8639922,,,,,,,,,,,,37.8476516,37.8639922,38.097689,38.1101051,38.1157523,38.1157523,38.3489833,38.4998767,right,1,0.3822496,None,0.3822496,None,0.25,38.4999704,38.5134899,39.2638216,39.247159,38.1157523,,,,,,,,,,,,,,,,,,,,,,,,,,,,,,P002,25,female,1,2026-01-18_16h35.38.433,SST2,2024.02.04,59.92265184,2026-01-18 16h36.00.359619 +0530
,20,4,2,,,,images/go_right.png,images/stop_right.png,None,1,right,0,0.4948781,None,,,,,2,4,20,7,,,,,,,,,,,,,,,,,39.2638216,,,,,,,,,,,,39.247276,39.2638216,39.4976648,39.5106205,39.5158167,39.5158167,39.7667753,40.0175196,right,0,0.4948781,None,None,0,0.2,40.0200873,40.0300525,40.7803525,40.7640013,39.5158167,,,,,,,,,,,,,,,,,,,,,,,,,,,,,,P002,25,female,1,2026-01-18_16h35.38.433,SST2,2024.02.04,59.92265184,2026-01-18 16h36.00.359619 +0530
,21,5,2,,,,images/go_left.png,images/stop_left.png,left,0,left,1,0.4121282,None,,,,,2,5,21,2,,,,,,,,,,,,,,,,,40.7803525,,,,,,,,,,,,40.7641523,40.7803525,41.0143333,41.0264307,41.0320555,41.0320555,41.232165,41.4496237,left,1,0.4121282,None,0.4121282,None,0.2,41.452048,41.4631673,42.2134158,42.1967032,41.0320555,,,,,,,,,,,,,,,,,,,,,,,,,,,,,,P002,25,female,1,2026-01-18_16h35.38.433,SST2,2024.02.04,59.92265184,2026-01-18 16h36.00.359619 +0530
,22,6,2,,,,images/go_right.png,images/stop_right.png,right,0,right,1,0.4061784,None,,,,,2,6,22,4,,,,,,,,,,,,,,,,,42.2134158,,,,,,,,,,,,42.1968212,42.2134158,42.4475977,42.4599655,42.4655532,42.4655532,42.6652043,42.8824743,right,1,0.4061784,None,0.4061784,None,0.2,42.8825439,42.8962141,43.6465126,43.6300128,42.4655532,,,,,,,,,,,,,,,,,,,,,,,,,,,,,,P002,25,female,1,2026-01-18_16h35.38.433,SST2,2024.02.04,59.92265184,2026-01-18 16h36.00.359619 +0530
,23,7,2,,,,images/go_left.png,images/stop_left.png,left,0,left,1,0.4141974,None,,,,,2,7,23,0,,,,,,,,,,,,,,,,,43.6465126,,,,,,,,,,,,43.6301367,43.6465126,43.8805108,43.8945726,43.8998455,43.8998455,44.098428,44.3157867,left,1,0.4141974,None,0.4141974,None,0.2,44.3158802,44.3293858,45.0797583,45.0632389,43.8998455,,,,,,,,,,,,,,,,,,,,,,,,,,,,,,P002,25,female,1,2026-01-18_16h35.38.433,SST2,2024.02.04,59.92265184,2026-01-18 16h36.00.359619 +0530
,24,0,3,,,,images/go_right.png,images/stop_right.png,right,0,right,1,0.4081462,None,,,,,3,0,24,6,,,,,,,,,,,,,,,,,45.0797583,,,,,,,,,,,,45.0633513,45.0797583,45.3136979,45.3281452,45.3332604,45.3332604,45.5315654,45.7489659,right,1,0.4081462,None,0.4081462,None,0.2,45.7490357,45.7626732,46.5128667,46.4963812,45.3332604,,,,,,,,,,,,,,,,,,,,,,,,,,,,,,P002,25,female,1,2026-01-18_16h35.38.433,SST2,2024.02.04,59.92265184,2026-01-18 16h36.00.359619 +0530
,25,1,3,,,,images/go_right.png,images/stop_right.png,right,0,right,1,0.3849128,None,,,,,3,1,25,5,,,,,,,,,,,,,,,,,46.5128667,,,,,,,,,,,,46.4965207,46.5128667,46.7467484,46.758562,46.7646668,46.7646668,46.9646083,47.1653403,right,1,0.3849128,None,0.3849128,None,0.2,47.1654069,47.1791234,47.9293421,47.912897,46.7646668,,,,,,,,,,,,,,,,,,,,,,,,,,,,,,P002,25,female,1,2026-01-18_16h35.38.433,SST2,2024.02.04,59.92265184,2026-01-18 16h36.00.359619 +0530
,26,2,3,,,,images/go_left.png,images/stop_left.png,left,0,left,1,0.3967809,None,,,,,3,2,26,1,,,,,,,,,,,,,,,,,47.9293421,,,,,,,,,,,,47.9130128,47.9293421,48.1634567,48.1758673,48.181101,48.181101,48.3812451,48.5819106,left,1,0.3967809,None,0.3967809,None,0.2,48.5819799,48.5955614,49.3458378,49.3293403,48.181101,,,,,,,,,,,,,,,,,,,,,,,,,,,,,,P002,25,female,1,2026-01-18_16h35.38.433,SST2,2024.02.04,59.92265184,2026-01-18 16h36.00.359619 +0530
,27,3,3,,,,images/go_right.png,images/stop_right.png,right,0,right,1,0.4369875,None,,,,,3,3,27,4,,,,,,,,,,,,,,,,,49.3458378,,,,,,,,,,,,49.3294525,49.3458378,49.5796786,49.5924426,49.5977853,49.5977853,49.797621,50.0485834,right,1,0.4369875,None,0.4369875,None,0.2,50.0486828,50.0620869,50.812346,50.7957096,49.5977853,,,,,,,,,,,,,,,,,,,,,,,,,,,,,,P002,25,female,1,2026-01-18_16h35.38.433,SST2,2024.02.04,59.92265184,2026-01-18 16h36.00.359619 +0530
,28,4,3,,,,images/go_left.png,images/stop_left.png,left,0,left,1,0.4049375,None,,,,,3,4,28,0,,,,,,,,,,,,,,,,,50.812346,,,,,,,,,,,,50.7958366,50.812346,51.0461786,51.0590499,51.0642982,51.0642982,51.2642145,51.4814254,left,1,0.4049375,None,0.4049375,None,0.2,51.4814906,51.4950783,52.2454376,52.2290502,51.0642982,,,,,,,,,,,,,,,,,,,,,,,,,,,,,,P002,25,female,1,2026-01-18_16h35.38.433,SST2,2024.02.04,59.92265184,2026-01-18 16h36.00.359619 +0530
,29,5,3,,,,images/go_right.png,images/stop_right.png,None,1,None,1,,,,,,,3,5,29,7,,,,,,,,,,,,,,,,,52.2454376,,,,,,,,,,,,52.2292211,52.2454376,52.4793438,52.4918529,52.497197,52.497197,52.698475,53.9471116,None,1,,,None,1,0.25,53.9472243,53.9616102,54.7118562,54.6952088,52.497197,53.7464643,53.7464643,53.9616102,,,,,,,,,,,,,,,,,,,,,,,,,,,P002,25,female,1,2026-01-18_16h35.38.433,SST2,2024.02.04,59.92265184,2026-01-18 16h36.00.359619 +0530
,30,6,3,,,,images/go_left.png,images/stop_left.png,None,1,None,1,,,,,,,3,6,30,3,,,,,,,,,,,,,,,,,54.7118562,,,,,,,,,,,,54.6953223,54.7118562,54.9456435,54.9580501,54.963633,54.963633,55.1980113,56.4466983,None,1,,,None,1,0.3,56.4468099,56.4612555,57.2115187,57.1951131,54.963633,56.2129033,56.2129033,56.4612555,,,,,,,,,,,,,,,,,,,,,,,,,,,P002,25,female,1,2026-01-18_16h35.38.433,SST2,2024.02.04,59.92265184,2026-01-18 16h36.00.359619 +0530
,31,7,3,,,,images/go_left.png,images/stop_left.png,left,0,left,1,0.4126009,None,,,,,3,7,31,2,,,,,,,,,,,,,,,,,57.2115187,,,,,,,,,,,,57.195256,57.2115187,57.44544,57.4576516,57.4633358,57.4633358,57.7467125,57.8806961,left,1,0.4126009,None,0.4126009,None,0.3,57.8807613,57.8945171,58.6444078,58.6282048,57.4633358,,,,,,,,,,,,,,,,,,,,,,,,,,,,,,P002,25,female,1,2026-01-18_16h35.38.433,SST2,2024.02.04,59.92265184,2026-01-18 16h36.00.359619 +0530
,,,,,,,,,,,,,,,,,,,,,,,,,,,,,,,,,,,,,,,,,,,,,,,,,,,,,,,,,,,,,,,,,,,,,,,,,,58.6405472,58.6444078,58.6444078,62.544909,space,3.8905526,None,,,,,,,,,,,,,,,,,,,,P002,25,female,1,2026-01-18_16h35.38.433,SST2,2024.02.04,59.92265184,2026-01-18 16h36.00.359619 +0530
,0,0,0,,,,images/go_left.png,images/stop_left.png,None,1,None,1,,,,,,,,,,,0,0,0,3,,,,,,,,,,,,,62.5608523,,,,,,,,,,,,62.5498482,62.5608523,62.7946962,62.8071835,62.812634,62.812634,63.0969624,64.34573,,,,,None,1,0.35,,,,,62.812634,64.0619632,64.0619632,64.3605758,,,,,,,,None,1,,,,,,,,,,,,,,,,,,P002,25,female,1,2026-01-18_16h35.38.433,SST2,2024.02.04,59.92265184,2026-01-18 16h36.00.359619 +0530
,1,1,0,,,,images/go_right.png,images/stop_right.png,right,0,right,1,0.3917198,None,,,,,,,,,0,1,1,4,,,,,,,,,,,,,64.3605758,,,,,,,,,,,,64.3459549,64.3605758,64.5945859,64.6073336,64.6126307,64.6126307,64.9455594,65.0130953,,,,,0.3917198,None,0.35,,,,,64.6126307,,,,,,,,,,,right,1,0.3917198,None,,,,,,,,,,,,,,,,P002,25,female,1,2026-01-18_16h35.38.433,SST2,2024.02.04,59.92265184,2026-01-18 16h36.00.359619 +0530
,2,2,0,,,,images/go_left.png,images/stop_left.png,left,0,left,1,0.3448383,None,,,,,,,,,0,2,2,2,,,,,,,,,,,,,65.0272188,,,,,,,,,,,,65.0132302,65.0272188,65.2611408,65.2748978,65.2801792,65.2801792,65.6291566,65.6301227,,,,,0.3448383,None,0.35,,,,,65.2801792,,,,,,,,,,,left,1,0.3448383,None,,,,,,,,,,,,,,,,P002,25,female,1,2026-01-18_16h35.38.433,SST2,2024.02.04,59.92265184,2026-01-18 16h36.00.359619 +0530
,3,3,0,,,,images/go_left.png,images/stop_left.png,left,0,left,1,0.3555329,None,,,,,,,,,0,3,3,0,,,,,,,,,,,,,65.6438435,,,,,,,,,,,,65.6302594,65.6438435,65.8777613,65.8917291,65.8968909,65.8968909,66.2456568,66.2630878,,,,,0.3555329,None,0.35,,,,,65.8968909,,,,,,,,,,,left,1,0.3555329,None,,,,,,,,,,,,,,,,P002,25,female,1,2026-01-18_16h35.38.433,SST2,2024.02.04,59.92265184,2026-01-18 16h36.00.359619 +0530
,4,4,0,,,,images/go_right.png,images/stop_right.png,right,0,right,1,0.3626631,None,,,,,,,,,0,4,4,6,,,,,,,,,,,,,66.2771232,,,,,,,,,,,,66.26324,66.2771232,66.5108835,66.5248754,66.53014,66.53014,66.878878,66.8959826,,,,,0.3626631,None,0.35,,,,,66.53014,,,,,,,,,,,right,1,0.3626631,None,,,,,,,,,,,,,,,,P002,25,female,1,2026-01-18_16h35.38.433,SST2,2024.02.04,59.92265184,2026-01-18 16h36.00.359619 +0530
,5,5,0,,,,images/go_right.png,images/stop_right.png,None,1,right,0,0.397483,None,,,,,,,,,0,5,5,7,,,,,,,,,,,,,66.9102394,,,,,,,,,,,,66.8961295,66.9102394,67.1440371,67.1560042,67.1620947,67.1620947,67.5131662,67.5639516,,,,,None,0,0.3,,,,,67.1620947,,,,,,,,,,,right,0,0.397483,None,,,,,,,,,,,,,,,,P002,25,female,1,2026-01-18_16h35.38.433,SST2,2024.02.04,59.92265184,2026-01-18 16h36.00.359619 +0530
,6,6,0,,,,images/go_left.png,images/stop_left.png,left,0,left,1,0.4012277,None,,,,,,,,,0,6,6,1,,,,,,,,,,,,,67.5768872,,,,,,,,,,,,67.5641539,67.5768872,67.8107893,67.8233722,67.8286843,67.8286843,68.1286481,68.2459593,,,,,0.4012277,None,0.3,,,,,67.8286843,,,,,,,,,,,left,1,0.4012277,None,,,,,,,,,,,,,,,,P002,25,female,1,2026-01-18_16h35.38.433,SST2,2024.02.04,59.92265184,2026-01-18 16h36.00.359619 +0530
,7,7,0,,,,images/go_right.png,images/stop_right.png,right,0,right,1,0.4304818,None,,,,,,,,,0,7,7,5,,,,,,,,,,,,,68.2602628,,,,,,,,,,,,68.2461216,68.2602628,68.4938648,68.506275,68.511902,68.511902,68.8118691,68.9459857,,,,,0.4304818,None,0.3,,,,,68.511902,,,,,,,,,,,right,1,0.4304818,None,,,,,,,,,,,,,,,,P002,25,female,1,2026-01-18_16h35.38.433,SST2,2024.02.04,59.92265184,2026-01-18 16h36.00.359619 +0530
,8,0,1,,,,images/go_right.png,images/stop_right.png,right,0,right,1,0.4016248,None,,,,,,,,,1,0,8,4,,,,,,,,,,,,,68.9601364,,,,,,,,,,,,68.9461317,68.9601364,69.1937618,69.2057924,69.2118715,69.2118715,69.5118951,69.6290853,,,,,0.4016248,None,0.3,,,,,69.2118715,,,,,,,,,,,right,1,0.4016248,None,,,,,,,,,,,,,,,,P002,25,female,1,2026-01-18_16h35.38.433,SST2,2024.02.04,59.92265184,2026-01-18 16h36.00.359619 +0530
,9,1,1,,,,images/go_right.png,images/stop_right.png,right,0,right,1,0.3793113,None,,,,,,,,,1,1,9,6,,,,,,,,,,,,,69.6431401,,,,,,,,,,,,69.6292221,69.6431401,69.8772639,69.889571,69.8949462,69.8949462,70.1951574,70.2791056,,,,,0.3793113,None,0.3,,,,,69.8949462,,,,,,,,,,,right,1,0.3793113,None,,,,,,,,,,,,,,,,P002,25,female,1,2026-01-18_16h35.38.433,SST2,2024.02.04,59.92265184,2026-01-18 16h36.00.359619 +0530
,10,2,1,,,,images/go_left.png,images/stop_left.png,left,0,left,1,0.3802654,None,,,,,,,,,1,2,10,2,,,,,,,,,,,,,70.2932291,,,,,,,,,,,,70.2792831,70.2932291,70.5270633,70.5398703,70.5450392,70.5450392,70.8448342,70.9290804,,,,,0.3802654,None,0.3,,,,,70.5450392,,,,,,,,,,,left,1,0.3802654,None,,,,,,,,,,,,,,,,P002,25,female,1,2026-01-18_16h35.38.433,SST2,2024.02.04,59.92265184,2026-01-18 16h36.00.359619 +0530
,11,3,1,,,,images/go_left.png,images/stop_left.png,left,0,left,1,0.3721436,None,,,,,,,,,1,3,11,0,,,,,,,,,,,,,70.9430435,,,,,,,,,,,,70.9292883,70.9430435,71.1769169,71.1908479,71.1959872,71.1959872,71.4948675,71.5789368,,,,,0.3721436,None,0.3,,,,,71.1959872,,,,,,,,,,,left,1,0.3721436,None,,,,,,,,,,,,,,,,P002,25,female,1,2026-01-18_16h35.38.433,SST2,2024.02.04,59.92265184,2026-01-18 16h36.00.359619 +0530
,12,4,1,,,,images/go_left.png,images/stop_left.png,left,0,left,1,0.4332709,None,,,,,,,,,1,4,12,1,,,,,,,,,,,,,71.5928703,,,,,,,,,,,,71.5791046,71.5928703,71.8268444,71.8390132,71.8447015,71.8447015,72.1448464,72.2789704,,,,,0.4332709,None,0.3,,,,,71.8447015,,,,,,,,,,,left,1,0.4332709,None,,,,,,,,,,,,,,,,P002,25,female,1,2026-01-18_16h35.38.433,SST2,2024.02.04,59.92265184,2026-01-18 16h36.00.359619 +0530
,13,5,1,,,,images/go_right.png,images/stop_right.png,None,1,right,0,0.3850662,None,,,,,,,,,1,5,13,7,,,,,,,,,,,,,72.2929532,,,,,,,,,,,,72.2791204,72.2929532,72.5269201,72.538767,72.5444929,72.5444929,72.8458564,72.9464647,,,,,None,0,0.25,,,,,72.5444929,,,,,,,,,,,right,0,0.3850662,None,,,,,,,,,,,,,,,,P002,25,female,1,2026-01-18_16h35.38.433,SST2,2024.02.04,59.92265184,2026-01-18 16h36.00.359619 +0530
,14,6,1,,,,images/go_right.png,images/stop_right.png,right,0,right,1,0.3897958,None,,,,,,,,,1,6,14,5,,,,,,,,,,,,,72.9595255,,,,,,,,,,,,72.9467274,72.9595255,73.1932886,73.2055865,73.2112379,73.2112379,73.4613822,73.6125258,,,,,0.3897958,None,0.25,,,,,73.2112379,,,,,,,,,,,right,1,0.3897958,None,,,,,,,,,,,,,,,,P002,25,female,1,2026-01-18_16h35.38.433,SST2,2024.02.04,59.92265184,2026-01-18 16h36.00.359619 +0530
,15,7,1,,,,images/go_left.png,images/stop_left.png,None,1,left,0,0.3886249,None,,,,,,,,,1,7,15,3,,,,,,,,,,,,,73.6261913,,,,,,,,,,,,73.6127936,73.6261913,73.8600954,73.8741174,73.8793481,73.8793481,74.1289781,74.2796927,,,,,None,0,0.2,,,,,73.8793481,,,,,,,,,,,left,0,0.3886249,None,,,,,,,,,,,,,,,,P002,25,female,1,2026-01-18_16h35.38.433,SST2,2024.02.04,59.92265184,2026-01-18 16h36.00.359619 +0530
,16,0,2,,,,images/go_left.png,images/stop_left.png,left,0,left,1,0.3939039,None,,,,,,,,,2,0,16,2,,,,,,,,,,,,,74.2926423,,,,,,,,,,,,74.27988,74.2926423,74.5265169,74.5386085,74.5444741,74.5444741,74.7445043,74.9449021,,,,,0.3939039,None,0.2,,,,,74.5444741,,,,,,,,,,,left,1,0.3939039,None,,,,,,,,,,,,,,,,P002,25,female,1,2026-01-18_16h35.38.433,SST2,2024.02.04,59.92265184,2026-01-18 16h36.00.359619 +0530
,17,1,2,,,,images/go_left.png,images/stop_left.png,left,0,left,1,0.3541475,None,,,,,,,,,2,1,17,1,,,,,,,,,,,,,74.9592926,,,,,,,,,,,,74.9450397,74.9592926,75.1930421,75.2046321,75.2110485,75.2110485,75.4110844,75.5783502,,,,,0.3541475,None,0.2,,,,,75.2110485,,,,,,,,,,,left,1,0.3541475,None,,,,,,,,,,,,,,,,P002,25,female,1,2026-01-18_16h35.38.433,SST2,2024.02.04,59.92265184,2026-01-18 16h36.00.359619 +0530
,18,2,2,,,,images/go_right.png,images/stop_right.png,right,0,right,1,0.3717362,None,,,,,,,,,2,2,18,5,,,,,,,,,,,,,75.5926427,,,,,,,,,,,,75.5784839,75.5926427,75.8263946,75.8382736,75.8440601,75.8440601,76.0442693,76.2284369,,,,,0.3717362,None,0.2,,,,,75.8440601,,,,,,,,,,,right,1,0.3717362,None,,,,,,,,,,,,,,,,P002,25,female,1,2026-01-18_16h35.38.433,SST2,2024.02.04,59.92265184,2026-01-18 16h36.00.359619 +0530
,19,3,2,,,,images/go_right.png,images/stop_right.png,None,1,right,0,0.3403367,None,,,,,,,,,2,3,19,7,,,,,,,,,,,,,76.2425343,,,,,,,,,,,,76.2285848,76.2425343,76.4761775,76.4911605,76.4964628,76.4964628,76.6952845,76.8461089,,,,,None,0,0.15,,,,,76.4964628,,,,,,,,,,,right,0,0.3403367,None,,,,,,,,,,,,,,,,P002,25,female,1,2026-01-18_16h35.38.433,SST2,2024.02.04,59.92265184,2026-01-18 16h36.00.359619 +0530
,20,4,2,,,,images/go_right.png,images/stop_right.png,right,0,right,1,0.4638464,None,,,,,,,,,2,4,20,4,,,,,,,,,,,,,76.8590436,,,,,,,,,,,,76.8463793,76.8590436,77.0928704,77.1058453,77.111409,77.111409,77.2609553,77.5782122,,,,,0.4638464,None,0.15,,,,,77.111409,,,,,,,,,,,right,1,0.4638464,None,,,,,,,,,,,,,,,,P002,25,female,1,2026-01-18_16h35.38.433,SST2,2024.02.04,59.92265184,2026-01-18 16h36.00.359619 +0530
,21,5,2,,,,images/go_left.png,images/stop_left.png,None,1,None,1,,,,,,,,,,,2,5,21,3,,,,,,,,,,,,,77.5921134,,,,,,,,,,,,77.5783691,77.5921134,77.8261749,77.8382,77.8439867,77.8439867,77.9951067,79.2438397,,,,,None,1,0.2,,,,,77.8439867,79.0932913,79.0932913,79.2587586,,,,,,,,None,1,,,,,,,,,,,,,,,,,,P002,25,female,1,2026-01-18_16h35.38.433,SST2,2024.02.04,59.92265184,2026-01-18 16h36.00.359619 +0530
,22,6,2,,,,images/go_left.png,images/stop_left.png,left,0,left,1,0.3481684,None,,,,,,,,,2,6,22,0,,,,,,,,,,,,,79.2587586,,,,,,,,,,,,79.244104,79.2587586,79.4923726,79.5045036,79.5105145,79.5105145,79.6936864,79.8615138,,,,,0.3481684,None,0.2,,,,,79.5105145,,,,,,,,,,,left,1,0.3481684,None,,,,,,,,,,,,,,,,P002,25,female,1,2026-01-18_16h35.38.433,SST2,2024.02.04,59.92265184,2026-01-18 16h36.00.359619 +0530
,23,7,2,,,,images/go_right.png,images/stop_right.png,right,0,right,1,0.3422436,None,,,,,,,,,2,7,23,6,,,,,,,,,,,,,79.8754217,,,,,,,,,,,,79.8617027,79.8754217,80.1092512,80.1217707,80.1272149,80.1272149,80.3271933,80.4779178,,,,,0.3422436,None,0.2,,,,,80.1272149,,,,,,,,,,,right,1,0.3422436,None,,,,,,,,,,,,,,,,P002,25,female,1,2026-01-18_16h35.38.433,SST2,2024.02.04,59.92265184,2026-01-18 16h36.00.359619 +0530
,24,0,3,,,,images/go_right.png,images/stop_right.png,right,0,right,1,0.3910875,None,,,,,,,,,3,0,24,6,,,,,,,,,,,,,80.4917672,,,,,,,,,,,,80.4780553,80.4917672,80.725757,80.739128,80.744419,80.744419,80.9437723,81.1444291,,,,,0.3910875,None,0.2,,,,,80.744419,,,,,,,,,,,right,1,0.3910875,None,,,,,,,,,,,,,,,,P002,25,female,1,2026-01-18_16h35.38.433,SST2,2024.02.04,59.92265184,2026-01-18 16h36.00.359619 +0530
,25,1,3,,,,images/go_left.png,images/stop_left.png,left,0,left,1,0.4261705,None,,,,,,,,,3,1,25,1,,,,,,,,,,,,,81.1585755,,,,,,,,,,,,81.1446092,81.1585755,81.3922492,81.4047551,81.4102516,81.4102516,81.6103526,81.8441851,,,,,0.4261705,None,0.2,,,,,81.4102516,,,,,,,,,,,left,1,0.4261705,None,,,,,,,,,,,,,,,,P002,25,female,1,2026-01-18_16h35.38.433,SST2,2024.02.04,59.92265184,2026-01-18 16h36.00.359619 +0530
,26,2,3,,,,images/go_right.png,images/stop_right.png,None,1,right,0,0.3473949,None,,,,,,,,,3,2,26,7,,,,,,,,,,,,,81.8584359,,,,,,,,,,,,81.8443234,81.8584359,82.0922894,82.1046778,82.110196,82.110196,82.3112597,82.4621044,,,,,None,0,0.15,,,,,82.110196,,,,,,,,,,,right,0,0.3473949,None,,,,,,,,,,,,,,,,P002,25,female,1,2026-01-18_16h35.38.433,SST2,2024.02.04,59.92265184,2026-01-18 16h36.00.359619 +0530
,27,3,3,,,,images/go_right.png,images/stop_right.png,right,0,right,1,0.4024226,None,,,,,,,,,3,3,27,5,,,,,,,,,,,,,82.4751638,,,,,,,,,,,,82.4623322,82.4751638,82.7089141,82.7219695,82.7273345,82.7273345,82.8769568,83.1440848,,,,,0.4024226,None,0.15,,,,,82.7273345,,,,,,,,,,,right,1,0.4024226,None,,,,,,,,,,,,,,,,P002,25,female,1,2026-01-18_16h35.38.433,SST2,2024.02.04,59.92265184,2026-01-18 16h36.00.359619 +0530
,28,4,3,,,,images/go_right.png,images/stop_right.png,right,0,right,1,0.3950966,None,,,,,,,,,3,4,28,4,,,,,,,,,,,,,83.1583377,,,,,,,,,,,,83.1442188,83.1583377,83.3919612,83.4041189,83.4099827,83.4099827,83.5600858,83.810829,,,,,0.3950966,None,0.15,,,,,83.4099827,,,,,,,,,,,right,1,0.3950966,None,,,,,,,,,,,,,,,,P002,25,female,1,2026-01-18_16h35.38.433,SST2,2024.02.04,59.92265184,2026-01-18 16h36.00.359619 +0530
,29,5,3,,,,images/go_left.png,images/stop_left.png,None,1,None,1,,,,,,,,,,,3,5,29,3,,,,,,,,,,,,,83.8248933,,,,,,,,,,,,83.8110011,83.8248933,84.0587388,84.0714176,84.0766041,84.0766041,84.2278325,85.4763512,,,,,None,1,0.2,,,,,84.0766041,85.3258277,85.3258277,85.4912855,,,,,,,,None,1,,,,,,,,,,,,,,,,,,P002,25,female,1,2026-01-18_16h35.38.433,SST2,2024.02.04,59.92265184,2026-01-18 16h36.00.359619 +0530
,30,6,3,,,,images/go_left.png,images/stop_left.png,left,0,left,1,0.4015514,None,,,,,,,,,3,6,30,2,,,,,,,,,,,,,85.4912855,,,,,,,,,,,,85.4765979,85.4912855,85.7250687,85.7372918,85.742877,85.742877,85.9264776,86.1606866,,,,,0.4015514,None,0.2,,,,,85.742877,,,,,,,,,,,left,1,0.4015514,None,,,,,,,,,,,,,,,,P002,25,female,1,2026-01-18_16h35.38.433,SST2,2024.02.04,59.92265184,2026-01-18 16h36.00.359619 +0530
,31,7,3,,,,images/go_left.png,images/stop_left.png,left,0,left,1,0.394368,None,,,,,,,,,3,7,31,0,,,,,,,,,,,,,86.1745086,,,,,,,,,,,,86.1608256,86.1745086,86.4084087,86.4211337,86.4265577,86.4265577,86.626209,86.8271135,,,,,0.394368,None,0.2,,,,,86.4265577,,,,,,,,,,,left,1,0.394368,None,,,,,,,,,,,,,,,,P002,25,female,1,2026-01-18_16h35.38.433,SST2,2024.02.04,59.92265184,2026-01-18 16h36.00.359619 +0530
,32,0,4,,,,images/go_right.png,images/stop_right.png,right,0,right,1,0.4304784,None,,,,,,,,,4,0,32,5,,,,,,,,,,,,,86.8411646,,,,,,,,,,,,86.8272685,86.8411646,87.0749896,87.0872701,87.0927053,87.0927053,87.2927909,87.5269466,,,,,0.4304784,None,0.2,,,,,87.0927053,,,,,,,,,,,right,1,0.4304784,None,,,,,,,,,,,,,,,,P002,25,female,1,2026-01-18_16h35.38.433,SST2,2024.02.04,59.92265184,2026-01-18 16h36.00.359619 +0530
,33,1,4,,,,images/go_left.png,images/stop_left.png,left,0,left,1,0.4064852,None,,,,,,,,,4,1,33,0,,,,,,,,,,,,,87.5411444,,,,,,,,,,,,87.5270805,87.5411444,87.7749391,87.787256,87.7925388,87.7925388,87.9927895,88.2101217,,,,,0.4064852,None,0.2,,,,,87.7925388,,,,,,,,,,,left,1,0.4064852,None,,,,,,,,,,,,,,,,P002,25,female,1,2026-01-18_16h35.38.433,SST2,2024.02.04,59.92265184,2026-01-18 16h36.00.359619 +0530
,34,2,4,,,,images/go_left.png,images/stop_left.png,left,0,left,1,0.4140344,None,,,,,,,,,4,2,34,1,,,,,,,,,,,,,88.2242293,,,,,,,,,,,,88.2102743,88.2242293,88.4581145,88.4700756,88.475984,88.475984,88.6760717,88.8935582,,,,,0.4140344,None,0.2,,,,,88.475984,,,,,,,,,,,left,1,0.4140344,None,,,,,,,,,,,,,,,,P002,25,female,1,2026-01-18_16h35.38.433,SST2,2024.02.04,59.92265184,2026-01-18 16h36.00.359619 +0530
,35,3,4,,,,images/go_right.png,images/stop_right.png,right,0,right,1,0.3925122,None,,,,,,,,,4,3,35,6,,,,,,,,,,,,,88.9075194,,,,,,,,,,,,88.8937525,88.9075194,89.1414444,89.1543791,89.1598085,89.1598085,89.359335,89.5601105,,,,,0.3925122,None,0.2,,,,,89.1598085,,,,,,,,,,,right,1,0.3925122,None,,,,,,,,,,,,,,,,P002,25,female,1,2026-01-18_16h35.38.433,SST2,2024.02.04,59.92265184,2026-01-18 16h36.00.359619 +0530
,36,4,4,,,,images/go_right.png,images/stop_right.png,None,1,right,0,0.3714792,None,,,,,,,,,4,4,36,7,,,,,,,,,,,,,89.5742065,,,,,,,,,,,,89.5602635,89.5742065,89.807996,89.821211,89.8266737,89.8266737,90.0270651,90.2109995,,,,,None,0,0.15,,,,,89.8266737,,,,,,,,,,,right,0,0.3714792,None,,,,,,,,,,,,,,,,P002,25,female,1,2026-01-18_16h35.38.433,SST2,2024.02.04,59.92265184,2026-01-18 16h36.00.359619 +0530
,37,5,4,,,,images/go_right.png,images/stop_right.png,right,0,right,1,0.3927354,None,,,,,,,,,4,5,37,4,,,,,,,,,,,,,90.2241564,,,,,,,,,,,,90.2111924,90.2241564,90.4580149,90.4703471,90.475792,90.475792,90.6259036,90.8766018,,,,,0.3927354,None,0.15,,,,,90.475792,,,,,,,,,,,right,1,0.3927354,None,,,,,,,,,,,,,,,,P002,25,female,1,2026-01-18_16h35.38.433,SST2,2024.02.04,59.92265184,2026-01-18 16h36.00.359619 +0530
,38,6,4,,,,images/go_left.png,images/stop_left.png,left,0,left,1,0.3742597,None,,,,,,,,,4,6,38,2,,,,,,,,,,,,,90.8904263,,,,,,,,,,,,90.8767341,90.8904263,91.1244935,91.1369737,91.142314,91.142314,91.2923986,91.5267556,,,,,0.3742597,None,0.15,,,,,91.142314,,,,,,,,,,,left,1,0.3742597,None,,,,,,,,,,,,,,,,P002,25,female,1,2026-01-18_16h35.38.433,SST2,2024.02.04,59.92265184,2026-01-18 16h36.00.359619 +0530
,39,7,4,,,,images/go_left.png,images/stop_left.png,None,1,None,1,,,,,,,,,,,4,7,39,3,,,,,,,,,,,,,91.5404327,,,,,,,,,,,,91.5269147,91.5404327,91.7745477,91.7870095,91.7922301,91.7922301,91.9435298,93.1921365,,,,,None,1,0.2,,,,,91.7922301,93.0415146,93.0415146,93.2069364,,,,,,,,None,1,,,,,,,,,,,,,,,,,,P002,25,female,1,2026-01-18_16h35.38.433,SST2,2024.02.04,59.92265184,2026-01-18 16h36.00.359619 +0530
,40,0,5,,,,images/go_left.png,images/stop_left.png,left,0,left,1,0.4717018,None,,,,,,,,,5,0,40,2,,,,,,,,,,,,,93.2069364,,,,,,,,,,,,93.1923643,93.2069364,93.4409368,93.4529087,93.4586791,93.4586791,93.6419868,93.942796,,,,,0.4717018,None,0.2,,,,,93.4586791,,,,,,,,,,,left,1,0.4717018,None,,,,,,,,,,,,,,,,P002,25,female,1,2026-01-18_16h35.38.433,SST2,2024.02.04,59.92265184,2026-01-18 16h36.00.359619 +0530
,41,1,5,,,,images/go_right.png,images/stop_right.png,right,0,right,1,0.4275339,None,,,,,,,,,5,1,41,5,,,,,,,,,,,,,93.9568393,,,,,,,,,,,,93.9429471,93.9568393,94.1906399,94.2032619,94.2089348,94.2089348,94.4087437,94.6429909,,,,,0.4275339,None,0.2,,,,,94.2089348,,,,,,,,,,,right,1,0.4275339,None,,,,,,,,,,,,,,,,P002,25,female,1,2026-01-18_16h35.38.433,SST2,2024.02.04,59.92265184,2026-01-18 16h36.00.359619 +0530
,42,2,5,,,,images/go_right.png,images/stop_right.png,right,0,right,1,0.4045593,None,,,,,,,,,5,2,42,6,,,,,,,,,,,,,94.6567586,,,,,,,,,,,,94.6431772,94.6567586,94.890519,94.9028607,94.9085454,94.9085454,95.1086096,95.3260433,,,,,0.4045593,None,0.2,,,,,94.9085454,,,,,,,,,,,right,1,0.4045593,None,,,,,,,,,,,,,,,,P002,25,female,1,2026-01-18_16h35.38.433,SST2,2024.02.04,59.92265184,2026-01-18 16h36.00.359619 +0530
,43,3,5,,,,images/go_left.png,images/stop_left.png,left,0,left,1,0.5970847,None,,,,,,,,,5,3,43,1,,,,,,,,,,,,,95.3399986,,,,,,,,,,,,95.3261807,95.3399986,95.5740555,95.58645,95.5916904,95.5916904,95.791824,96.1926257,,,,,0.5970847,None,0.2,,,,,95.5916904,,,,,,,,,,,left,1,0.5970847,None,,,,,,,,,,,,,,,,P002,25,female,1,2026-01-18_16h35.38.433,SST2,2024.02.04,59.92265184,2026-01-18 16h36.00.359619 +0530
,44,4,5,,,,images/go_left.png,images/stop_left.png,None,1,None,1,,,,,,,,,,,5,4,44,3,,,,,,,,,,,,,96.2066794,,,,,,,,,,,,96.1927743,96.2066794,96.440532,96.4525647,96.4583845,96.4583845,96.659542,97.9081945,,,,,None,1,0.25,,,,,96.4583845,97.7076447,97.7076447,97.9231436,,,,,,,,None,1,,,,,,,,,,,,,,,,,,P002,25,female,1,2026-01-18_16h35.38.433,SST2,2024.02.04,59.92265184,2026-01-18 16h36.00.359619 +0530
,45,5,5,,,,images/go_left.png,images/stop_left.png,left,0,left,1,0.3895215,None,,,,,,,,,5,5,45,0,,,,,,,,,,,,,97.9231436,,,,,,,,,,,,97.9083864,97.9231436,98.1569428,98.1693724,98.1748079,98.1748079,98.4248791,98.5755959,,,,,0.3895215,None,0.25,,,,,98.1748079,,,,,,,,,,,left,1,0.3895215,None,,,,,,,,,,,,,,,,P002,25,female,1,2026-01-18_16h35.38.433,SST2,2024.02.04,59.92265184,2026-01-18 16h36.00.359619 +0530
,46,6,5,,,,images/go_right.png,images/stop_right.png,None,1,right,0,0.3888861,None,,,,,,,,,5,6,46,7,,,,,,,,,,,,,98.5894494,,,,,,,,,,,,98.5757282,98.5894494,98.8234385,98.8373386,98.8425928,98.8425928,99.092387,99.2431124,,,,,None,0,0.2,,,,,98.8425928,,,,,,,,,,,right,0,0.3888861,None,,,,,,,,,,,,,,,,P002,25,female,1,2026-01-18_16h35.38.433,SST2,2024.02.04,59.92265184,2026-01-18 16h36.00.359619 +0530
,47,7,5,,,,images/go_right.png,images/stop_right.png,right,0,right,1,0.3679408,None,,,,,,,,,5,7,47,4,,,,,,,,,,,,,99.2562492,,,,,,,,,,,,99.2434259,99.2562492,99.4900729,99.5023435,99.5079749,99.5079749,99.7079561,99.8917194,,,,,0.3679408,None,0.2,,,,,99.5079749,,,,,,,,,,,right,1,0.3679408,None,,,,,,,,,,,,,,,,P002,25,female,1,2026-01-18_16h35.38.433,SST2,2024.02.04,59.92265184,2026-01-18 16h36.00.359619 +0530
,48,0,6,,,,images/go_right.png,images/stop_right.png,None,1,None,1,,,,,,,,,,,6,0,48,7,,,,,,,,,,,,,99.9062154,,,,,,,,,,,,99.8918557,99.9062154,100.1398794,100.151783,100.1578822,100.1578822,100.3590488,101.6075816,,,,,None,1,0.25,,,,,100.1578822,101.4071791,101.4071791,101.6226235,,,,,,,,None,1,,,,,,,,,,,,,,,,,,P002,25,female,1,2026-01-18_16h35.38.433,SST2,2024.02.04,59.92265184,2026-01-18 16h36.00.359619 +0530
,49,1,6,,,,images/go_right.png,images/stop_right.png,right,0,right,1,0.5514726,None,,,,,,,,,6,1,49,4,,,,,,,,,,,,,101.6226235,,,,,,,,,,,,101.6077685,101.6226235,101.8564904,101.8683246,101.8743538,101.8743538,102.1077398,102.4415527,,,,,0.5514726,None,0.25,,,,,101.8743538,,,,,,,,,,,right,1,0.5514726,None,,,,,,,,,,,,,,,,P002,25,female,1,2026-01-18_16h35.38.433,SST2,2024.02.04,59.92265184,2026-01-18 16h36.00.359619 +0530
,50,2,6,,,,images/go_right.png,images/stop_right.png,right,0,right,1,0.4302589,None,,,,,,,,,6,2,50,5,,,,,,,,,,,,,102.4557893,,,,,,,,,,,,102.4416862,102.4557893,102.6894835,102.7019616,102.7074957,102.7074957,102.9575842,103.1415229,,,,,0.4302589,None,0.25,,,,,102.7074957,,,,,,,,,,,right,1,0.4302589,None,,,,,,,,,,,,,,,,P002,25,female,1,2026-01-18_16h35.38.433,SST2,2024.02.04,59.92265184,2026-01-18 16h36.00.359619 +0530
,51,3,6,,,,images/go_left.png,images/stop_left.png,left,0,left,1,0.4569988,None,,,,,,,,,6,3,51,0,,,,,,,,,,,,,103.1557922,,,,,,,,,,,,103.1416663,103.1557922,103.3895852,103.4024751,103.4077709,103.4077709,103.6575277,103.8751454,,,,,0.4569988,None,0.25,,,,,103.4077709,,,,,,,,,,,left,1,0.4569988,None,,,,,,,,,,,,,,,,P002,25,female,1,2026-01-18_16h35.38.433,SST2,2024.02.04,59.92265184,2026-01-18 16h36.00.359619 +0530
,52,4,6,,,,images/go_left.png,images/stop_left.png,left,0,left,1,0.4261581,None,,,,,,,,,6,4,52,2,,,,,,,,,,,,,103.8888348,,,,,,,,,,,,103.8753261,103.8888348,104.1228132,104.1356837,104.1408467,104.1408467,104.3906495,104.5749536,,,,,0.4261581,None,0.25,,,,,104.1408467,,,,,,,,,,,left,1,0.4261581,None,,,,,,,,,,,,,,,,P002,25,female,1,2026-01-18_16h35.38.433,SST2,2024.02.04,59.92265184,2026-01-18 16h36.00.359619 +0530
,53,5,6,,,,images/go_left.png,images/stop_left.png,left,0,left,1,0.4020571,None,,,,,,,,,6,5,53,1,,,,,,,,,,,,,104.5887898,,,,,,,,,,,,104.5751081,104.5887898,104.822753,104.8349191,104.8404172,104.8404172,105.0905554,105.2580806,,,,,0.4020571,None,0.25,,,,,104.8404172,,,,,,,,,,,left,1,0.4020571,None,,,,,,,,,,,,,,,,P002,25,female,1,2026-01-18_16h35.38.433,SST2,2024.02.04,59.92265184,2026-01-18 16h36.00.359619 +0530
,54,6,6,,,,images/go_left.png,images/stop_left.png,None,1,left,0,0.3439054,None,,,,,,,,,6,6,54,3,,,,,,,,,,,,,105.2721996,,,,,,,,,,,,105.2582781,105.2721996,105.5059529,105.518161,105.5238026,105.5238026,105.7749564,105.8756931,,,,,None,0,0.2,,,,,105.5238026,,,,,,,,,,,left,0,0.3439054,None,,,,,,,,,,,,,,,,P002,25,female,1,2026-01-18_16h35.38.433,SST2,2024.02.04,59.92265184,2026-01-18 16h36.00.359619 +0530
,55,7,6,,,,images/go_right.png,images/stop_right.png,right,0,right,1,0.4254081,None,,,,,,,,,6,7,55,6,,,,,,,,,,,,,105.8886426,,,,,,,,,,,,105.8759181,105.8886426,106.1226042,106.1355107,106.1408826,106.1408826,106.3404501,106.5744819,,,,,0.4254081,None,0.2,,,,,106.1408826,,,,,,,,,,,right,1,0.4254081,None,,,,,,,,,,,,,,,,P002,25,female,1,2026-01-18_16h35.38.433,SST2,2024.02.04,59.92265184,2026-01-18 16h36.00.359619 +0530
,56,0,7,,,,images/go_left.png,images/stop_left.png,left,0,left,1,0.3859673,None,,,,,,,,,7,0,56,2,,,,,,,,,,,,,106.5884827,,,,,,,,,,,,106.5746308,106.5884827,106.8224233,106.8347657,106.84015,106.84015,107.0403194,107.2410781,,,,,0.3859673,None,0.2,,,,,106.84015,,,,,,,,,,,left,1,0.3859673,None,,,,,,,,,,,,,,,,P002,25,female,1,2026-01-18_16h35.38.433,SST2,2024.02.04,59.92265184,2026-01-18 16h36.00.359619 +0530
,57,1,7,,,,images/go_left.png,images/stop_left.png,None,1,None,1,,,,,,,,,,,7,1,57,3,,,,,,,,,,,,,107.2552223,,,,,,,,,,,,107.2412566,107.2552223,107.4890238,107.5012842,107.5069501,107.5069501,107.7080534,108.9568637,,,,,None,1,0.25,,,,,107.5069501,108.7561472,108.7561472,108.9717156,,,,,,,,None,1,,,,,,,,,,,,,,,,,,P002,25,female,1,2026-01-18_16h35.38.433,SST2,2024.02.04,59.92265184,2026-01-18 16h36.00.359619 +0530
,58,2,7,,,,images/go_left.png,images/stop_left.png,left,0,left,1,0.4716699,None,,,,,,,,,7,2,58,0,,,,,,,,,,,,,108.9717156,,,,,,,,,,,,108.9571347,108.9717156,109.2055561,109.2183667,109.2234767,109.2234767,109.4567833,109.7073667,,,,,0.4716699,None,0.25,,,,,109.2234767,,,,,,,,,,,left,1,0.4716699,None,,,,,,,,,,,,,,,,P002,25,female,1,2026-01-18_16h35.38.433,SST2,2024.02.04,59.92265184,2026-01-18 16h36.00.359619 +0530
,59,3,7,,,,images/go_right.png,images/stop_right.png,right,0,right,1,0.3431719,None,,,,,,,,,7,3,59,4,,,,,,,,,,,,,109.7214985,,,,,,,,,,,,109.7075238,109.7214985,109.9553522,109.9675209,109.9733432,109.9733432,110.2234611,110.3242072,,,,,0.3431719,None,0.25,,,,,109.9733432,,,,,,,,,,,right,1,0.3431719,None,,,,,,,,,,,,,,,,P002,25,female,1,2026-01-18_16h35.38.433,SST2,2024.02.04,59.92265184,2026-01-18 16h36.00.359619 +0530
,60,4,7,,,,images/go_right.png,images/stop_right.png,right,0,right,1,0.3382186,None,,,,,,,,,7,4,60,5,,,,,,,,,,,,,110.3380944,,,,,,,,,,,,110.3243596,110.3380944,110.5719178,110.5840918,110.5897906,110.5897906,110.8398972,110.9405634,,,,,0.3382186,None,0.25,,,,,110.5897906,,,,,,,,,,,right,1,0.3382186,None,,,,,,,,,,,,,,,,P002,25,female,1,2026-01-18_16h35.38.433,SST2,2024.02.04,59.92265184,2026-01-18 16h36.00.359619 +0530
,61,5,7,,,,images/go_left.png,images/stop_left.png,left,0,left,1,0.374141,None,,,,,,,,,7,5,61,1,,,,,,,,,,,,,110.9547409,,,,,,,,,,,,110.9406967,110.9547409,111.1885633,111.2009852,111.2064998,111.2064998,111.4566078,111.59044,,,,,0.374141,None,0.25,,,,,111.2064998,,,,,,,,,,,left,1,0.374141,None,,,,,,,,,,,,,,,,P002,25,female,1,2026-01-18_16h35.38.433,SST2,2024.02.04,59.92265184,2026-01-18 16h36.00.359619 +0530
,62,6,7,,,,images/go_right.png,images/stop_right.png,None,1,right,0,0.3691899,None,,,,,,,,,7,6,62,7,,,,,,,,,,,,,111.6046443,,,,,,,,,,,,111.5905798,111.6046443,111.8384706,111.8506406,111.8563996,111.8563996,112.1077123,112.2415568,,,,,None,0,0.2,,,,,111.8563996,,,,,,,,,,,right,0,0.3691899,None,,,,,,,,,,,,,,,,P002,25,female,1,2026-01-18_16h35.38.433,SST2,2024.02.04,59.92265184,2026-01-18 16h36.00.359619 +0530
,63,7,7,,,,images/go_right.png,images/stop_right.png,right,0,right,1,0.4052497,None,,,,,,,,,7,7,63,6,,,,,,,,,,,,,112.2546337,,,,,,,,,,,,112.2417937,112.2546337,112.4883798,112.5005148,112.5062341,112.5062341,112.7064037,112.9236311,,,,,0.4052497,None,0.2,,,,,112.5062341,,,,,,,,,,,right,1,0.4052497,None,,,,,,,,,,,,,,,,P002,25,female,1,2026-01-18_16h35.38.433,SST2,2024.02.04,59.92265184,2026-01-18 16h36.00.359619 +0530
,,,,,,,,,,,,,,,,,,,,,,,,,,,,,,,,,,,,,,,,,,,,,,,,,,,,,,,,,,,,,,,,,,,,,,,,,,112.9341493,112.9378895,112.9378895,116.8215268,space,3.8758872,None,,,,,,,,,,,,,,,,,,,,P002,25,female,1,2026-01-18_16h35.38.433,SST2,2024.02.04,59.92265184,2026-01-18 16h36.00.359619 +0530
,0,0,0,,,,images/go_left.png,images/stop_left.png,left,0,left,1,0.400768,None,,,,,,,,,,,,,0,0,0,2,,,,,,,,,116.837058,,,,,,,,,,,,116.8279509,116.837058,117.0712606,117.084814,117.0902658,117.0902658,117.2724868,117.5066089,,,,,0.400768,None,0.2,,,,,117.0902658,,,,,,,,,,,,,,,left,1,0.400768,None,,,,,,,,,,,,P002,25,female,1,2026-01-18_16h35.38.433,SST2,2024.02.04,59.92265184,2026-01-18 16h36.00.359619 +0530
,1,1,0,,,,images/go_left.png,images/stop_left.png,left,0,left,1,0.3234565,None,,,,,,,,,,,,,0,1,1,1,,,,,,,,,117.5204847,,,,,,,,,,,,117.5068531,117.5204847,117.7543917,117.76768,117.7732243,117.7732243,117.9723068,118.1063578,,,,,0.3234565,None,0.2,,,,,117.7732243,,,,,,,,,,,,,,,left,1,0.3234565,None,,,,,,,,,,,,P002,25,female,1,2026-01-18_16h35.38.433,SST2,2024.02.04,59.92265184,2026-01-18 16h36.00.359619 +0530
,2,2,0,,,,images/go_right.png,images/stop_right.png,right,0,left,0,0.3253418,None,,,,,,,,,,,,,0,2,2,4,,,,,,,,,118.1205746,,,,,,,,,,,,118.1064985,118.1205746,118.354723,118.366747,118.3722419,118.3722419,118.5722404,118.7063475,,,,,None,None,0.2,,,,,118.3722419,,,,,,,,,,,,,,,left,0,0.3253418,None,,,,,,,,,,,,P002,25,female,1,2026-01-18_16h35.38.433,SST2,2024.02.04,59.92265184,2026-01-18 16h36.00.359619 +0530
,3,3,0,,,,images/go_right.png,images/stop_right.png,None,1,right,0,0.2360989,None,,,,,,,,,,,,,0,3,3,7,,,,,,,,,118.7203938,,,,,,,,,,,,118.7065201,118.7203938,118.9542963,118.9660532,118.9721898,118.9721898,119.1733328,119.2239059,,,,,None,0,0.15,,,,,118.9721898,,,,,,,,,,,,,,,right,0,0.2360989,None,,,,,,,,,,,,P002,25,female,1,2026-01-18_16h35.38.433,SST2,2024.02.04,59.92265184,2026-01-18 16h36.00.359619 +0530
,4,4,0,,,,images/go_left.png,images/stop_left.png,None,1,left,0,0.4117937,None,,,,,,,,,,,,,0,4,4,3,,,,,,,,,119.237083,,,,,,,,,,,,119.2241247,119.237083,119.470899,119.4842937,119.4893421,119.4893421,119.6398047,119.9070937,,,,,None,0,0.1,,,,,119.4893421,,,,,,,,,,,,,,,left,0,0.4117937,None,,,,,,,,,,,,P002,25,female,1,2026-01-18_16h35.38.433,SST2,2024.02.04,59.92265184,2026-01-18 16h36.00.359619 +0530
,5,5,0,,,,images/go_right.png,images/stop_right.png,right,0,right,1,0.4068048,None,,,,,,,,,,,,,0,5,5,5,,,,,,,,,119.9202589,,,,,,,,,,,,119.9072847,119.9202589,120.1541602,120.1661408,120.1719949,120.1719949,120.2721079,120.5891709,,,,,0.4068048,None,0.1,,,,,120.1719949,,,,,,,,,,,,,,,right,1,0.4068048,None,,,,,,,,,,,,P002,25,female,1,2026-01-18_16h35.38.433,SST2,2024.02.04,59.92265184,2026-01-18 16h36.00.359619 +0530
,6,6,0,,,,images/go_left.png,images/stop_left.png,left,0,left,1,0.3522209,None,,,,,,,,,,,,,0,6,6,0,,,,,,,,,120.6035252,,,,,,,,,,,,120.5893199,120.6035252,120.8372738,120.8503294,120.8558176,120.8558176,120.9554383,121.2229105,,,,,0.3522209,None,0.1,,,,,120.8558176,,,,,,,,,,,,,,,left,1,0.3522209,None,,,,,,,,,,,,P002,25,female,1,2026-01-18_16h35.38.433,SST2,2024.02.04,59.92265184,2026-01-18 16h36.00.359619 +0530
,7,7,0,,,,images/go_right.png,images/stop_right.png,right,0,right,1,0.3856177,None,,,,,,,,,,,,,0,7,7,6,,,,,,,,,121.2367119,,,,,,,,,,,,121.2230989,121.2367119,121.4706209,121.4827692,121.4883946,121.4883946,121.588468,121.8889785,,,,,0.3856177,None,0.1,,,,,121.4883946,,,,,,,,,,,,,,,right,1,0.3856177,None,,,,,,,,,,,,P002,25,female,1,2026-01-18_16h35.38.433,SST2,2024.02.04,59.92265184,2026-01-18 16h36.00.359619 +0530
,8,0,1,,,,images/go_left.png,images/stop_left.png,left,0,left,1,0.3554122,None,,,,,,,,,,,,,1,0,8,0,,,,,,,,,121.9032371,,,,,,,,,,,,121.889144,121.9032371,122.1370678,122.1500576,122.1555278,122.1555278,122.2551836,122.5224883,,,,,0.3554122,None,0.1,,,,,122.1555278,,,,,,,,,,,,,,,left,1,0.3554122,None,,,,,,,,,,,,P002,25,female,1,2026-01-18_16h35.38.433,SST2,2024.02.04,59.92265184,2026-01-18 16h36.00.359619 +0530
,9,1,1,,,,images/go_right.png,images/stop_right.png,None,1,None,1,,,,,,,,,,,,,,,1,1,9,7,,,,,,,,,122.5363918,,,,,,,,,,,,122.5226352,122.5363918,122.7704447,122.7837141,122.7888363,122.7888363,122.8892643,124.1380681,,,,,None,1,0.15,,,,,122.7888363,124.0374549,124.0374549,124.1530064,,,,,,,,,,,,None,1,,,,,,,,,,,,,,P002,25,female,1,2026-01-18_16h35.38.433,SST2,2024.02.04,59.92265184,2026-01-18 16h36.00.359619 +0530
,10,2,1,,,,images/go_right.png,images/stop_right.png,right,0,right,1,0.3656261,None,,,,,,,,,,,,,1,2,10,4,,,,,,,,,124.1530064,,,,,,,,,,,,124.1383015,124.1530064,124.3868354,124.3989602,124.404743,124.404743,124.5381795,124.7723289,,,,,0.3656261,None,0.15,,,,,124.404743,,,,,,,,,,,,,,,right,1,0.3656261,None,,,,,,,,,,,,P002,25,female,1,2026-01-18_16h35.38.433,SST2,2024.02.04,59.92265184,2026-01-18 16h36.00.359619 +0530
,11,3,1,,,,images/go_right.png,images/stop_right.png,right,0,right,1,0.4386856,None,,,,,,,,,,,,,1,3,11,5,,,,,,,,,124.7862705,,,,,,,,,,,,124.7724859,124.7862705,125.0201499,125.0321295,125.0380948,125.0380948,125.1879132,125.4886118,,,,,0.4386856,None,0.15,,,,,125.0380948,,,,,,,,,,,,,,,right,1,0.4386856,None,,,,,,,,,,,,P002,25,female,1,2026-01-18_16h35.38.433,SST2,2024.02.04,59.92265184,2026-01-18 16h36.00.359619 +0530
,12,4,1,,,,images/go_right.png,images/stop_right.png,right,0,right,1,0.4274784,None,,,,,,,,,,,,,1,4,12,6,,,,,,,,,125.5029148,,,,,,,,,,,,125.488769,125.5029148,125.7365077,125.7497424,125.7550062,125.7550062,125.9046319,126.1885724,,,,,0.4274784,None,0.15,,,,,125.7550062,,,,,,,,,,,,,,,right,1,0.4274784,None,,,,,,,,,,,,P002,25,female,1,2026-01-18_16h35.38.433,SST2,2024.02.04,59.92265184,2026-01-18 16h36.00.359619 +0530
,13,5,1,,,,images/go_left.png,images/stop_left.png,left,0,left,1,0.3431341,None,,,,,,,,,,,,,1,5,13,1,,,,,,,,,126.2028805,,,,,,,,,,,,126.1887085,126.2028805,126.4365655,126.4497467,126.4551854,126.4551854,126.6045391,126.8052318,,,,,0.3431341,None,0.15,,,,,126.4551854,,,,,,,,,,,,,,,left,1,0.3431341,None,,,,,,,,,,,,P002,25,female,1,2026-01-18_16h35.38.433,SST2,2024.02.04,59.92265184,2026-01-18 16h36.00.359619 +0530
,14,6,1,,,,images/go_left.png,images/stop_left.png,None,1,left,0,0.4636212,None,,,,,,,,,,,,,1,6,14,3,,,,,,,,,126.8193254,,,,,,,,,,,,126.8053963,126.8193254,127.0533306,127.0654934,127.0711351,127.0711351,127.2224122,127.5397259,,,,,None,0,0.1,,,,,127.0711351,,,,,,,,,,,,,,,left,0,0.4636212,None,,,,,,,,,,,,P002,25,female,1,2026-01-18_16h35.38.433,SST2,2024.02.04,59.92265184,2026-01-18 16h36.00.359619 +0530
,15,7,1,,,,images/go_left.png,images/stop_left.png,left,0,left,1,0.4427909,None,,,,,,,,,,,,,1,7,15,2,,,,,,,,,127.5526535,,,,,,,,,,,,127.5399874,127.5526535,127.7864238,127.7985243,127.8043969,127.8043969,127.9044534,128.2550373,,,,,0.4427909,None,0.1,,,,,127.8043969,,,,,,,,,,,,,,,left,1,0.4427909,None,,,,,,,,,,,,P002,25,female,1,2026-01-18_16h35.38.433,SST2,2024.02.04,59.92265184,2026-01-18 16h36.00.359619 +0530
,16,0,2,,,,images/go_left.png,images/stop_left.png,None,1,None,1,,,,,,,,,,,,,,,2,0,16,3,,,,,,,,,128.2692231,,,,,,,,,,,,128.2551799,128.2692231,128.5031598,128.5152015,128.5209794,128.5209794,128.6221359,129.8706996,,,,,None,1,0.15,,,,,128.5209794,129.7701018,129.7701018,129.8854273,,,,,,,,,,,,None,1,,,,,,,,,,,,,,P002,25,female,1,2026-01-18_16h35.38.433,SST2,2024.02.04,59.92265184,2026-01-18 16h36.00.359619 +0530
,17,1,2,,,,images/go_left.png,images/stop_left.png,left,0,left,1,0.4096463,None,,,,,,,,,,,,,2,1,17,1,,,,,,,,,129.8854273,,,,,,,,,,,,129.8709498,129.8854273,130.1194341,130.135829,130.1411644,130.1411644,130.2712147,130.555018,,,,,0.4096463,None,0.15,,,,,130.1411644,,,,,,,,,,,,,,,left,1,0.4096463,None,,,,,,,,,,,,P002,25,female,1,2026-01-18_16h35.38.433,SST2,2024.02.04,59.92265184,2026-01-18 16h36.00.359619 +0530
,18,2,2,,,,images/go_right.png,images/stop_right.png,right,0,right,1,0.3625078,None,,,,,,,,,,,,,2,2,18,4,,,,,,,,,130.5688294,,,,,,,,,,,,130.5551833,130.5688294,130.8026985,130.8200835,130.825451,130.825451,130.9705947,131.2046895,,,,,0.3625078,None,0.15,,,,,130.825451,,,,,,,,,,,,,,,right,1,0.3625078,None,,,,,,,,,,,,P002,25,female,1,2026-01-18_16h35.38.433,SST2,2024.02.04,59.92265184,2026-01-18 16h36.00.359619 +0530
,19,3,2,,,,images/go_right.png,images/stop_right.png,None,1,right,0,0.3297174,None,,,,,,,,,,,,,2,3,19,7,,,,,,,,,131.2187297,,,,,,,,,,,,131.2049042,131.2187297,131.452598,131.4686607,131.4737251,131.4737251,131.6216257,131.8057855,,,,,None,0,0.1,,,,,131.4737251,,,,,,,,,,,,,,,right,0,0.3297174,None,,,,,,,,,,,,P002,25,female,1,2026-01-18_16h35.38.433,SST2,2024.02.04,59.92265184,2026-01-18 16h36.00.359619 +0530
,20,4,2,,,,images/go_left.png,images/stop_left.png,left,0,left,1,0.3455739,None,,,,,,,,,,,,,2,4,20,0,,,,,,,,,131.8186619,,,,,,,,,,,,131.8060753,131.8186619,132.0525973,132.0689185,132.0743804,132.0743804,132.1704285,132.421244,,,,,0.3455739,None,0.1,,,,,132.0743804,,,,,,,,,,,,,,,left,1,0.3455739,None,,,,,,,,,,,,P002,25,female,1,2026-01-18_16h35.38.433,SST2,2024.02.04,59.92265184,2026-01-18 16h36.00.359619 +0530
,21,5,2,,,,images/go_right.png,images/stop_right.png,right,0,right,1,0.4018859,None,,,,,,,,,,,,,2,5,21,5,,,,,,,,,132.4350845,,,,,,,,,,,,132.4214639,132.4350845,132.6691501,132.6839588,132.6890034,132.6890034,132.7868723,133.1042893,,,,,0.4018859,None,0.1,,,,,132.6890034,,,,,,,,,,,,,,,right,1,0.4018859,None,,,,,,,,,,,,P002,25,female,1,2026-01-18_16h35.38.433,SST2,2024.02.04,59.92265184,2026-01-18 16h36.00.359619 +0530
,22,6,2,,,,images/go_left.png,images/stop_left.png,left,0,left,1,0.33075,None,,,,,,,,,,,,,2,6,22,2,,,,,,,,,133.1184991,,,,,,,,,,,,133.104433,133.1184991,133.3524363,133.3668447,133.3719845,133.3719845,133.4702597,133.7042238,,,,,0.33075,None,0.1,,,,,133.3719845,,,,,,,,,,,,,,,left,1,0.33075,None,,,,,,,,,,,,P002,25,female,1,2026-01-18_16h35.38.433,SST2,2024.02.04,59.92265184,2026-01-18 16h36.00.359619 +0530
,23,7,2,,,,images/go_right.png,images/stop_right.png,right,0,right,1,0.3387617,None,,,,,,,,,,,,,2,7,23,6,,,,,,,,,133.7184113,,,,,,,,,,,,133.7043683,133.7184113,133.9522252,133.9643888,133.9702562,133.9702562,134.0703842,134.3208993,,,,,0.3387617,None,0.1,,,,,133.9702562,,,,,,,,,,,,,,,right,1,0.3387617,None,,,,,,,,,,,,P002,25,female,1,2026-01-18_16h35.38.433,SST2,2024.02.04,59.92265184,2026-01-18 16h36.00.359619 +0530
,24,0,3,,,,images/go_left.png,images/stop_left.png,None,1,None,1,,,,,,,,,,,,,,,3,0,24,3,,,,,,,,,134.3349926,,,,,,,,,,,,134.3210354,134.3349926,134.5689455,134.5828812,134.5884144,134.5884144,134.6878542,135.9363671,,,,,None,1,0.15,,,,,134.5884144,135.8361606,135.8361606,135.9515095,,,,,,,,,,,,None,1,,,,,,,,,,,,,,P002,25,female,1,2026-01-18_16h35.38.433,SST2,2024.02.04,59.92265184,2026-01-18 16h36.00.359619 +0530
,25,1,3,,,,images/go_left.png,images/stop_left.png,left,0,left,1,0.3343725,None,,,,,,,,,,,,,3,1,25,0,,,,,,,,,135.9515095,,,,,,,,,,,,135.936566,135.9515095,136.1853361,136.1972139,136.2032907,136.2032907,136.336559,136.5540861,,,,,0.3343725,None,0.15,,,,,136.2032907,,,,,,,,,,,,,,,left,1,0.3343725,None,,,,,,,,,,,,P002,25,female,1,2026-01-18_16h35.38.433,SST2,2024.02.04,59.92265184,2026-01-18 16h36.00.359619 +0530
,26,2,3,,,,images/go_right.png,images/stop_right.png,right,0,right,1,0.3836334,None,,,,,,,,,,,,,3,2,26,6,,,,,,,,,136.5681289,,,,,,,,,,,,136.5542443,136.5681289,136.8019862,136.814239,136.8199025,136.8199025,136.9699799,137.2206426,,,,,0.3836334,None,0.15,,,,,136.8199025,,,,,,,,,,,,,,,right,1,0.3836334,None,,,,,,,,,,,,P002,25,female,1,2026-01-18_16h35.38.433,SST2,2024.02.04,59.92265184,2026-01-18 16h36.00.359619 +0530
,27,3,3,,,,images/go_left.png,images/stop_left.png,left,0,left,1,0.3545349,None,,,,,,,,,,,,,3,3,27,2,,,,,,,,,137.2345576,,,,,,,,,,,,137.2208168,137.2345576,137.4685513,137.4809574,137.4862336,137.4862336,137.63647,137.8538163,,,,,0.3545349,None,0.15,,,,,137.4862336,,,,,,,,,,,,,,,left,1,0.3545349,None,,,,,,,,,,,,P002,25,female,1,2026-01-18_16h35.38.433,SST2,2024.02.04,59.92265184,2026-01-18 16h36.00.359619 +0530
,28,4,3,,,,images/go_right.png,images/stop_right.png,None,1,None,1,,,,,,,,,,,,,,,3,4,28,7,,,,,,,,,137.8678886,,,,,,,,,,,,137.8539789,137.8678886,138.1018575,138.1142177,138.119737,138.119737,138.2708715,139.5196041,,,,,None,1,0.2,,,,,138.119737,139.3689716,139.3689716,139.5343688,,,,,,,,,,,,None,1,,,,,,,,,,,,,,P002,25,female,1,2026-01-18_16h35.38.433,SST2,2024.02.04,59.92265184,2026-01-18 16h36.00.359619 +0530
,29,5,3,,,,images/go_right.png,images/stop_right.png,right,0,right,1,0.3238931,None,,,,,,,,,,,,,3,5,29,4,,,,,,,,,139.5343688,,,,,,,,,,,,139.5198467,139.5343688,139.768208,139.7806306,139.7860367,139.7860367,139.9696006,140.1205098,,,,,0.3238931,None,0.2,,,,,139.7860367,,,,,,,,,,,,,,,right,1,0.3238931,None,,,,,,,,,,,,P002,25,female,1,2026-01-18_16h35.38.433,SST2,2024.02.04,59.92265184,2026-01-18 16h36.00.359619 +0530
,30,6,3,,,,images/go_left.png,images/stop_left.png,left,0,left,1,0.4308014,None,,,,,,,,,,,,,3,6,30,1,,,,,,,,,140.1342071,,,,,,,,,,,,140.1206617,140.1342071,140.3681837,140.3803588,140.3859804,140.3859804,140.5862052,140.8200649,,,,,0.4308014,None,0.2,,,,,140.3859804,,,,,,,,,,,,,,,left,1,0.4308014,None,,,,,,,,,,,,P002,25,female,1,2026-01-18_16h35.38.433,SST2,2024.02.04,59.92265184,2026-01-18 16h36.00.359619 +0530
,31,7,3,,,,images/go_right.png,images/stop_right.png,right,0,right,1,0.4515733,None,,,,,,,,,,,,,3,7,31,5,,,,,,,,,140.8341616,,,,,,,,,,,,140.8202103,140.8341616,141.0681197,141.0799131,141.0860602,141.0860602,141.2859641,141.5533835,,,,,0.4515733,None,0.2,,,,,141.0860602,,,,,,,,,,,,,,,right,1,0.4515733,None,,,,,,,,,,,,P002,25,female,1,2026-01-18_16h35.38.433,SST2,2024.02.04,59.92265184,2026-01-18 16h36.00.359619 +0530
,32,0,4,,,,images/go_right.png,images/stop_right.png,None,1,None,1,,,,,,,,,,,,,,,4,0,32,7,,,,,,,,,141.5675502,,,,,,,,,,,,141.5535179,141.5675502,141.8013336,141.8136544,141.8192396,141.8192396,142.0204299,143.2690516,,,,,None,1,0.25,,,,,141.8192396,143.068524,143.068524,143.2840704,,,,,,,,,,,,None,1,,,,,,,,,,,,,,P002,25,female,1,2026-01-18_16h35.38.433,SST2,2024.02.04,59.92265184,2026-01-18 16h36.00.359619 +0530
,33,1,4,,,,images/go_right.png,images/stop_right.png,right,0,right,1,0.4061846,None,,,,,,,,,,,,,4,1,33,4,,,,,,,,,143.2840704,,,,,,,,,,,,143.2692775,143.2840704,143.5178866,143.5302356,143.5355805,143.5355805,143.7692042,143.9530731,,,,,0.4061846,None,0.25,,,,,143.5355805,,,,,,,,,,,,,,,right,1,0.4061846,None,,,,,,,,,,,,P002,25,female,1,2026-01-18_16h35.38.433,SST2,2024.02.04,59.92265184,2026-01-18 16h36.00.359619 +0530
,34,2,4,,,,images/go_left.png,images/stop_left.png,left,0,left,1,0.5399272,None,,,,,,,,,,,,,4,2,34,0,,,,,,,,,143.9671261,,,,,,,,,,,,143.9532842,143.9671261,144.2010051,144.2130875,144.2190024,144.2190024,144.4690143,144.7696713,,,,,0.5399272,None,0.25,,,,,144.2190024,,,,,,,,,,,,,,,left,1,0.5399272,None,,,,,,,,,,,,P002,25,female,1,2026-01-18_16h35.38.433,SST2,2024.02.04,59.92265184,2026-01-18 16h36.00.359619 +0530
,35,3,4,,,,images/go_left.png,images/stop_left.png,None,1,left,0,0.4302349,None,,,,,,,,,,,,,4,3,35,3,,,,,,,,,144.783608,,,,,,,,,,,,144.7698354,144.783608,145.0175728,145.0296847,145.035735,145.035735,145.2866484,145.4707655,,,,,None,0,0.2,,,,,145.035735,,,,,,,,,,,,,,,left,0,0.4302349,None,,,,,,,,,,,,P002,25,female,1,2026-01-18_16h35.38.433,SST2,2024.02.04,59.92265184,2026-01-18 16h36.00.359619 +0530
,36,4,4,,,,images/go_right.png,images/stop_right.png,right,0,right,1,0.3704054,None,,,,,,,,,,,,,4,4,36,5,,,,,,,,,145.4835158,,,,,,,,,,,,145.4709854,145.4835158,145.7175244,145.7307995,145.7360167,145.7360167,145.9353221,146.1194177,,,,,0.3704054,None,0.2,,,,,145.7360167,,,,,,,,,,,,,,,right,1,0.3704054,None,,,,,,,,,,,,P002,25,female,1,2026-01-18_16h35.38.433,SST2,2024.02.04,59.92265184,2026-01-18 16h36.00.359619 +0530
,37,5,4,,,,images/go_left.png,images/stop_left.png,left,0,right,0,0.443707,None,,,,,,,,,,,,,4,5,37,2,,,,,,,,,146.1335356,,,,,,,,,,,,146.1195552,146.1335356,146.3674001,146.379504,146.3853087,146.3853087,146.5852902,146.8359823,,,,,None,None,0.2,,,,,146.3853087,,,,,,,,,,,,,,,right,0,0.443707,None,,,,,,,,,,,,P002,25,female,1,2026-01-18_16h35.38.433,SST2,2024.02.04,59.92265184,2026-01-18 16h36.00.359619 +0530
,38,6,4,,,,images/go_left.png,images/stop_left.png,left,0,left,1,0.3577879,None,,,,,,,,,,,,,4,6,38,1,,,,,,,,,146.8503391,,,,,,,,,,,,146.8361193,146.8503391,147.0839011,147.0962167,147.1019189,147.1019189,147.3021789,147.469321,,,,,0.3577879,None,0.2,,,,,147.1019189,,,,,,,,,,,,,,,left,1,0.3577879,None,,,,,,,,,,,,P002,25,female,1,2026-01-18_16h35.38.433,SST2,2024.02.04,59.92265184,2026-01-18 16h36.00.359619 +0530
,39,7,4,,,,images/go_right.png,images/stop_right.png,right,0,right,1,0.4329268,None,,,,,,,,,,,,,4,7,39,6,,,,,,,,,147.4833166,,,,,,,,,,,,147.4694581,147.4833166,147.7172667,147.7317736,147.7372548,147.7372548,147.9351407,148.1858242,,,,,0.4329268,None,0.2,,,,,147.7372548,,,,,,,,,,,,,,,right,1,0.4329268,None,,,,,,,,,,,,P002,25,female,1,2026-01-18_16h35.38.433,SST2,2024.02.04,59.92265184,2026-01-18 16h36.00.359619 +0530
,40,0,5,,,,images/go_left.png,images/stop_left.png,left,0,left,1,0.3854729,None,,,,,,,,,,,,,5,0,40,2,,,,,,,,,148.1999555,,,,,,,,,,,,148.185972,148.1999555,148.4337766,148.4463788,148.4519113,148.4519113,148.6519518,148.8525012,,,,,0.3854729,None,0.2,,,,,148.4519113,,,,,,,,,,,,,,,left,1,0.3854729,None,,,,,,,,,,,,P002,25,female,1,2026-01-18_16h35.38.433,SST2,2024.02.04,59.92265184,2026-01-18 16h36.00.359619 +0530
,41,1,5,,,,images/go_left.png,images/stop_left.png,left,0,left,1,0.4446567,None,,,,,,,,,,,,,5,1,41,1,,,,,,,,,148.8665522,,,,,,,,,,,,148.8526389,148.8665522,149.1005208,149.1127986,149.1182427,149.1182427,149.3183777,149.569169,,,,,0.4446567,None,0.2,,,,,149.1182427,,,,,,,,,,,,,,,left,1,0.4446567,None,,,,,,,,,,,,P002,25,female,1,2026-01-18_16h35.38.433,SST2,2024.02.04,59.92265184,2026-01-18 16h36.00.359619 +0530
,42,2,5,,,,images/go_right.png,images/stop_right.png,right,0,right,1,0.4805123,None,,,,,,,,,,,,,5,2,42,4,,,,,,,,,149.5832894,,,,,,,,,,,,149.5693224,149.5832894,149.8170313,149.829053,149.8347546,149.8347546,150.034916,150.3190526,,,,,0.4805123,None,0.2,,,,,149.8347546,,,,,,,,,,,,,,,right,1,0.4805123,None,,,,,,,,,,,,P002,25,female,1,2026-01-18_16h35.38.433,SST2,2024.02.04,59.92265184,2026-01-18 16h36.00.359619 +0530
,43,3,5,,,,images/go_left.png,images/stop_left.png,left,0,left,1,0.5059962,None,,,,,,,,,,,,,5,3,43,0,,,,,,,,,150.3332212,,,,,,,,,,,,150.3192478,150.3332212,150.5669147,150.5786624,150.5847991,150.5847991,150.7848772,151.1023357,,,,,0.5059962,None,0.2,,,,,150.5847991,,,,,,,,,,,,,,,left,1,0.5059962,None,,,,,,,,,,,,P002,25,female,1,2026-01-18_16h35.38.433,SST2,2024.02.04,59.92265184,2026-01-18 16h36.00.359619 +0530
,44,4,5,,,,images/go_right.png,images/stop_right.png,None,1,None,1,,,,,,,,,,,,,,,5,4,44,7,,,,,,,,,151.1163734,,,,,,,,,,,,151.1025743,151.1163734,151.3501458,151.3628106,151.3681418,151.3681418,151.5692362,152.817937,,,,,None,1,0.25,,,,,151.3681418,152.6173323,152.6173323,152.8327729,,,,,,,,,,,,None,1,,,,,,,,,,,,,,P002,25,female,1,2026-01-18_16h35.38.433,SST2,2024.02.04,59.92265184,2026-01-18 16h36.00.359619 +0530
,45,5,5,,,,images/go_left.png,images/stop_left.png,None,1,None,1,,,,,,,,,,,,,,,5,5,45,3,,,,,,,,,152.8327729,,,,,,,,,,,,152.818121,152.8327729,153.066577,153.0786875,153.0843194,153.0843194,153.3190131,154.5676312,,,,,None,1,0.3,,,,,153.0843194,154.3338225,154.3338225,154.5825223,,,,,,,,,,,,None,1,,,,,,,,,,,,,,P002,25,female,1,2026-01-18_16h35.38.433,SST2,2024.02.04,59.92265184,2026-01-18 16h36.00.359619 +0530
,46,6,5,,,,images/go_right.png,images/stop_right.png,right,0,right,1,0.8126522,None,,,,,,,,,,,,,5,6,46,6,,,,,,,,,154.5825223,,,,,,,,,,,,154.5678227,154.5825223,154.816339,154.8283607,154.8342981,154.8342981,155.1176403,155.65163,,,,,0.8126522,None,0.3,,,,,154.8342981,,,,,,,,,,,,,,,right,1,0.8126522,None,,,,,,,,,,,,P002,25,female,1,2026-01-18_16h35.38.433,SST2,2024.02.04,59.92265184,2026-01-18 16h36.00.359619 +0530
,47,7,5,,,,images/go_right.png,images/stop_right.png,right,0,right,1,0.384206,None,,,,,,,,,,,,,5,7,47,5,,,,,,,,,155.6656961,,,,,,,,,,,,155.6517812,155.6656961,155.8995374,155.9112718,155.9175009,155.9175009,156.2174581,156.3182363,,,,,0.384206,None,0.3,,,,,155.9175009,,,,,,,,,,,,,,,right,1,0.384206,None,,,,,,,,,,,,P002,25,female,1,2026-01-18_16h35.38.433,SST2,2024.02.04,59.92265184,2026-01-18 16h36.00.359619 +0530
,48,0,6,,,,images/go_left.png,images/stop_left.png,None,1,left,0,0.5234164,None,,,,,,,,,,,,,6,0,48,3,,,,,,,,,156.3323371,,,,,,,,,,,,156.318408,156.3323371,156.5661814,156.5791617,156.5844783,156.5844783,156.8852082,157.1190373,,,,,None,0,0.25,,,,,156.5844783,,,,,,,,,,,,,,,left,0,0.5234164,None,,,,,,,,,,,,P002,25,female,1,2026-01-18_16h35.38.433,SST2,2024.02.04,59.92265184,2026-01-18 16h36.00.359619 +0530
,49,1,6,,,,images/go_left.png,images/stop_left.png,left,0,left,1,0.4158849,None,,,,,,,,,,,,,6,1,49,1,,,,,,,,,157.1321794,,,,,,,,,,,,157.1192263,157.1321794,157.3662435,157.3780642,157.3838787,157.3838787,157.6339822,157.8013098,,,,,0.4158849,None,0.25,,,,,157.3838787,,,,,,,,,,,,,,,left,1,0.4158849,None,,,,,,,,,,,,P002,25,female,1,2026-01-18_16h35.38.433,SST2,2024.02.04,59.92265184,2026-01-18 16h36.00.359619 +0530
,50,2,6,,,,images/go_left.png,images/stop_left.png,left,0,left,1,0.5242809,None,,,,,,,,,,,,,6,2,50,2,,,,,,,,,157.8155678,,,,,,,,,,,,157.8014546,157.8155678,158.0494009,158.0614221,158.0671522,158.0671522,158.317332,158.6012818,,,,,0.5242809,None,0.25,,,,,158.0671522,,,,,,,,,,,,,,,left,1,0.5242809,None,,,,,,,,,,,,P002,25,female,1,2026-01-18_16h35.38.433,SST2,2024.02.04,59.92265184,2026-01-18 16h36.00.359619 +0530
,51,3,6,,,,images/go_right.png,images/stop_right.png,right,0,right,1,0.4535325,None,,,,,,,,,,,,,6,3,51,6,,,,,,,,,158.615322,,,,,,,,,,,,158.6014228,158.615322,158.849217,158.8630884,158.8684827,158.8684827,159.1172007,159.3343766,,,,,0.4535325,None,0.25,,,,,158.8684827,,,,,,,,,,,,,,,right,1,0.4535325,None,,,,,,,,,,,,P002,25,female,1,2026-01-18_16h35.38.433,SST2,2024.02.04,59.92265184,2026-01-18 16h36.00.359619 +0530
,52,4,6,,,,images/go_left.png,images/stop_left.png,left,0,None,0,,,,,,,,,,,,,,,6,4,52,0,,,,,,,,,159.348627,,,,,,,,,,,,159.3345177,159.348627,159.5825863,159.5946107,159.6003439,159.6003439,159.8504214,161.0989247,,,,,None,None,0.25,,,,,159.6003439,160.8484354,160.8484354,161.1151546,,,,,,,,,,,,None,0,,,,,,,,,,,,,,P002,25,female,1,2026-01-18_16h35.38.433,SST2,2024.02.04,59.92265184,2026-01-18 16h36.00.359619 +0530
,53,5,6,,,,images/go_right.png,images/stop_right.png,right,0,right,1,0.5263939,None,,,,,,,,,,,,,6,5,53,4,,,,,,,,,161.1151546,,,,,,,,,,,,161.0990713,161.1151546,161.3487947,161.3608661,161.366785,161.366785,161.6002233,161.9007254,,,,,0.5263939,None,0.25,,,,,161.366785,,,,,,,,,,,,,,,right,1,0.5263939,None,,,,,,,,,,,,P002,25,female,1,2026-01-18_16h35.38.433,SST2,2024.02.04,59.92265184,2026-01-18 16h36.00.359619 +0530
,54,6,6,,,,images/go_right.png,images/stop_right.png,right,0,None,0,,,,,,,,,,,,,,,6,6,54,5,,,,,,,,,161.9149146,,,,,,,,,,,,161.9008595,161.9149146,162.148815,162.1608846,162.1666269,162.1666269,162.4166826,163.6653429,,,,,None,None,0.25,,,,,162.1666269,163.414877,163.414877,163.6814586,,,,,,,,,,,,None,0,,,,,,,,,,,,,,P002,25,female,1,2026-01-18_16h35.38.433,SST2,2024.02.04,59.92265184,2026-01-18 16h36.00.359619 +0530
,55,7,6,,,,images/go_right.png,images/stop_right.png,None,1,right,0,0.3587591,None,,,,,,,,,,,,,6,7,55,7,,,,,,,,,163.6814586,,,,,,,,,,,,163.6654947,163.6814586,163.9151281,163.9272115,163.9331909,163.9331909,164.16767,164.3016644,,,,,None,0,0.2,,,,,163.9331909,,,,,,,,,,,,,,,right,0,0.3587591,None,,,,,,,,,,,,P002,25,female,1,2026-01-18_16h35.38.433,SST2,2024.02.04,59.92265184,2026-01-18 16h36.00.359619 +0530
,56,0,7,,,,images/go_left.png,images/stop_left.png,None,1,left,0,0.4420971,None,,,,,,,,,,,,,7,0,56,3,,,,,,,,,164.3147218,,,,,,,,,,,,164.3018551,164.3147218,164.5484483,164.5612092,164.5667043,164.5667043,164.7676901,165.0182149,,,,,None,0,0.15,,,,,164.5667043,,,,,,,,,,,,,,,left,0,0.4420971,None,,,,,,,,,,,,P002,25,female,1,2026-01-18_16h35.38.433,SST2,2024.02.04,59.92265184,2026-01-18 16h36.00.359619 +0530
,57,1,7,,,,images/go_left.png,images/stop_left.png,left,0,left,1,0.8227604,None,,,,,,,,,,,,,7,1,57,1,,,,,,,,,165.031034,,,,,,,,,,,,165.0184204,165.031034,165.2650226,165.2774556,165.2827292,165.2827292,165.4329375,166.1168486,,,,,0.8227604,None,0.15,,,,,165.2827292,,,,,,,,,,,,,,,left,1,0.8227604,None,,,,,,,,,,,,P002,25,female,1,2026-01-18_16h35.38.433,SST2,2024.02.04,59.92265184,2026-01-18 16h36.00.359619 +0530
,58,2,7,,,,images/go_left.png,images/stop_left.png,left,0,left,1,0.4694187,None,,,,,,,,,,,,,7,2,58,2,,,,,,,,,166.1309983,,,,,,,,,,,,166.1169835,166.1309983,166.3648608,166.3765325,166.3827683,166.3827683,166.5327252,166.8669033,,,,,0.4694187,None,0.15,,,,,166.3827683,,,,,,,,,,,,,,,left,1,0.4694187,None,,,,,,,,,,,,P002,25,female,1,2026-01-18_16h35.38.433,SST2,2024.02.04,59.92265184,2026-01-18 16h36.00.359619 +0530
,59,3,7,,,,images/go_right.png,images/stop_right.png,right,0,right,1,0.4461242,None,,,,,,,,,,,,,7,3,59,5,,,,,,,,,166.8812148,,,,,,,,,,,,166.8670522,166.8812148,167.1148229,167.127033,167.1326242,167.1326242,167.2826356,167.5834903,,,,,0.4461242,None,0.15,,,,,167.1326242,,,,,,,,,,,,,,,right,1,0.4461242,None,,,,,,,,,,,,P002,25,female,1,2026-01-18_16h35.38.433,SST2,2024.02.04,59.92265184,2026-01-18 16h36.00.359619 +0530
,60,4,7,,,,images/go_right.png,images/stop_right.png,right,0,right,1,0.3953147,None,,,,,,,,,,,,,7,4,60,4,,,,,,,,,167.5975216,,,,,,,,,,,,167.5836349,167.5975216,167.8313511,167.8432968,167.8494262,167.8494262,167.9992937,168.2499984,,,,,0.3953147,None,0.15,,,,,167.8494262,,,,,,,,,,,,,,,right,1,0.3953147,None,,,,,,,,,,,,P002,25,female,1,2026-01-18_16h35.38.433,SST2,2024.02.04,59.92265184,2026-01-18 16h36.00.359619 +0530
,61,5,7,,,,images/go_left.png,images/stop_left.png,left,0,left,1,0.5610282,None,,,,,,,,,,,,,7,5,61,0,,,,,,,,,168.2641402,,,,,,,,,,,,168.2501607,168.2641402,168.4979501,168.510196,168.5157771,168.5157771,168.6660111,169.0831774,,,,,0.5610282,None,0.15,,,,,168.5157771,,,,,,,,,,,,,,,left,1,0.5610282,None,,,,,,,,,,,,P002,25,female,1,2026-01-18_16h35.38.433,SST2,2024.02.04,59.92265184,2026-01-18 16h36.00.359619 +0530
,62,6,7,,,,images/go_right.png,images/stop_right.png,right,0,right,1,0.429355,None,,,,,,,,,,,,,7,6,62,6,,,,,,,,,169.0973499,,,,,,,,,,,,169.0833129,169.0973499,169.3310708,169.3434403,169.3491148,169.3491148,169.4990579,169.7831615,,,,,0.429355,None,0.15,,,,,169.3491148,,,,,,,,,,,,,,,right,1,0.429355,None,,,,,,,,,,,,P002,25,female,1,2026-01-18_16h35.38.433,SST2,2024.02.04,59.92265184,2026-01-18 16h36.00.359619 +0530
,63,7,7,,,,images/go_right.png,images/stop_right.png,None,1,None,1,,,,,,,,,,,,,,,7,7,63,7,,,,,,,,,169.7972055,,,,,,,,,,,,169.7833095,169.7972055,170.0311511,170.0434614,170.0489155,170.0489155,170.2001953,171.4489335,,,,,None,1,0.2,,,,,170.0489155,171.2981985,171.2981985,171.4643779,,,,,,,,,,,,None,1,,,,,,,,,,,,,,P002,25,female,1,2026-01-18_16h35.38.433,SST2,2024.02.04,59.92265184,2026-01-18 16h36.00.359619 +0530
,,,,,,,,,,,,,,,,,,,,,,,,,,,,,,,,,,,,,,,,,,,,,,,,,,,,,,,,,,,,,,,,,,,,,,,,,,171.4600535,171.4643779,171.4643779,175.0643655,space,3.5989366,None,,,,,,,,,,,,,,,,,,,,P002,25,female,1,2026-01-18_16h35.38.433,SST2,2024.02.04,59.92265184,2026-01-18 16h36.00.359619 +0530
,0,0,0,,,,images/go_right.png,images/stop_right.png,right,0,right,1,0.466777,None,,,,,,,,,,,,,,,,,0,0,0,5,,,,,175.079832,,,,,,,,,,,,175.0701773,175.079832,175.3138995,175.3275995,175.3327375,175.3327375,175.5150839,175.8160788,,,,,0.466777,None,0.2,,,,,175.3327375,,,,,,,,,,,,,,,,,,,right,1,0.466777,None,,,,,,,,P002,25,female,1,2026-01-18_16h35.38.433,SST2,2024.02.04,59.92265184,2026-01-18 16h36.00.359619 +0530
,1,1,0,,,,images/go_left.png,images/stop_left.png,left,0,left,1,0.3447999,None,,,,,,,,,,,,,,,,,0,1,1,2,,,,,175.8297207,,,,,,,,,,,,175.8162123,175.8297207,176.0637131,176.076152,176.0815529,176.0815529,176.2816908,176.4323698,,,,,0.3447999,None,0.2,,,,,176.0815529,,,,,,,,,,,,,,,,,,,left,1,0.3447999,None,,,,,,,,P002,25,female,1,2026-01-18_16h35.38.433,SST2,2024.02.04,59.92265184,2026-01-18 16h36.00.359619 +0530
,2,2,0,,,,images/go_right.png,images/stop_right.png,right,0,right,1,0.389782,None,,,,,,,,,,,,,,,,,0,2,2,6,,,,,176.4465139,,,,,,,,,,,,176.4325178,176.4465139,176.6802119,176.6922955,176.6982175,176.6982175,176.8982698,177.0988881,,,,,0.389782,None,0.2,,,,,176.6982175,,,,,,,,,,,,,,,,,,,right,1,0.389782,None,,,,,,,,P002,25,female,1,2026-01-18_16h35.38.433,SST2,2024.02.04,59.92265184,2026-01-18 16h36.00.359619 +0530
,3,3,0,,,,images/go_left.png,images/stop_left.png,left,0,left,1,0.3596569,None,,,,,,,,,,,,,,,,,0,3,3,1,,,,,177.1131528,,,,,,,,,,,,177.0990286,177.1131528,177.3469311,177.3590969,177.3646691,177.3646691,177.5648264,177.7321043,,,,,0.3596569,None,0.2,,,,,177.3646691,,,,,,,,,,,,,,,,,,,left,1,0.3596569,None,,,,,,,,P002,25,female,1,2026-01-18_16h35.38.433,SST2,2024.02.04,59.92265184,2026-01-18 16h36.00.359619 +0530
,4,4,0,,,,images/go_right.png,images/stop_right.png,right,0,right,1,0.3916693,None,,,,,,,,,,,,,,,,,0,4,4,4,,,,,177.7461898,,,,,,,,,,,,177.7323353,177.7461898,177.9800606,177.9918979,177.9979923,177.9979923,178.1980024,178.3987299,,,,,0.3916693,None,0.2,,,,,177.9979923,,,,,,,,,,,,,,,,,,,right,1,0.3916693,None,,,,,,,,P002,25,female,1,2026-01-18_16h35.38.433,SST2,2024.02.04,59.92265184,2026-01-18 16h36.00.359619 +0530
,5,5,0,,,,images/go_left.png,images/stop_left.png,None,1,None,1,,,,,,,,,,,,,,,,,,,0,5,5,3,,,,,178.4128925,,,,,,,,,,,,178.3988984,178.4128925,178.6467844,178.65884,178.6645699,178.6645699,178.8657437,180.1143614,,,,,None,1,0.25,,,,,178.6645699,179.9137739,179.9137739,180.1292669,,,,,,,,,,,,,,,,None,1,,,,,,,,,,P002,25,female,1,2026-01-18_16h35.38.433,SST2,2024.02.04,59.92265184,2026-01-18 16h36.00.359619 +0530
,6,6,0,,,,images/go_left.png,images/stop_left.png,left,0,left,1,0.4240773,None,,,,,,,,,,,,,,,,,0,6,6,0,,,,,180.1292669,,,,,,,,,,,,180.114577,180.1292669,180.3631429,180.3751581,180.3809824,180.3809824,180.6144412,180.8149727,,,,,0.4240773,None,0.25,,,,,180.3809824,,,,,,,,,,,,,,,,,,,left,1,0.4240773,None,,,,,,,,P002,25,female,1,2026-01-18_16h35.38.433,SST2,2024.02.04,59.92265184,2026-01-18 16h36.00.359619 +0530
,7,7,0,,,,images/go_right.png,images/stop_right.png,None,1,right,0,0.3901717,None,,,,,,,,,,,,,,,,,0,7,7,7,,,,,180.8291546,,,,,,,,,,,,180.8151092,180.8291546,181.0632808,181.0753043,181.0808122,181.0808122,181.332141,181.4825684,,,,,None,0,0.2,,,,,181.0808122,,,,,,,,,,,,,,,,,,,right,0,0.3901717,None,,,,,,,,P002,25,female,1,2026-01-18_16h35.38.433,SST2,2024.02.04,59.92265184,2026-01-18 16h36.00.359619 +0530
,8,0,1,,,,images/go_left.png,images/stop_left.png,left,0,left,1,0.3095956,None,,,,,,,,,,,,,,,,,1,0,8,2,,,,,181.4957265,,,,,,,,,,,,181.4828378,181.4957265,181.7295876,181.7420003,181.7475262,181.7475262,181.9475645,182.0649635,,,,,0.3095956,None,0.2,,,,,181.7475262,,,,,,,,,,,,,,,,,,,left,1,0.3095956,None,,,,,,,,P002,25,female,1,2026-01-18_16h35.38.433,SST2,2024.02.04,59.92265184,2026-01-18 16h36.00.359619 +0530
,9,1,1,,,,images/go_left.png,images/stop_left.png,left,0,left,1,0.4383681,None,,,,,,,,,,,,,,,,,1,1,9,1,,,,,182.0791034,,,,,,,,,,,,182.0651243,182.0791034,182.3129442,182.3260386,182.331275,182.331275,182.5308806,182.7815322,,,,,0.4383681,None,0.2,,,,,182.331275,,,,,,,,,,,,,,,,,,,left,1,0.4383681,None,,,,,,,,P002,25,female,1,2026-01-18_16h35.38.433,SST2,2024.02.04,59.92265184,2026-01-18 16h36.00.359619 +0530
,10,2,1,,,,images/go_right.png,images/stop_right.png,right,0,right,1,0.4275865,None,,,,,,,,,,,,,,,,,1,2,10,4,,,,,182.7956397,,,,,,,,,,,,182.7816747,182.7956397,183.029304,183.0417739,183.0473625,183.0473625,183.2474312,183.4813144,,,,,0.4275865,None,0.2,,,,,183.0473625,,,,,,,,,,,,,,,,,,,right,1,0.4275865,None,,,,,,,,P002,25,female,1,2026-01-18_16h35.38.433,SST2,2024.02.04,59.92265184,2026-01-18 16h36.00.359619 +0530
,11,3,1,,,,images/go_left.png,images/stop_left.png,None,1,left,0,0.3833733,None,,,,,,,,,,,,,,,,,1,3,11,3,,,,,183.495525,,,,,,,,,,,,183.4814742,183.495525,183.7294333,183.7422241,183.7474821,183.7474821,183.9484345,184.132728,,,,,None,0,0.15,,,,,183.7474821,,,,,,,,,,,,,,,,,,,left,0,0.3833733,None,,,,,,,,P002,25,female,1,2026-01-18_16h35.38.433,SST2,2024.02.04,59.92265184,2026-01-18 16h36.00.359619 +0530
,12,4,1,,,,images/go_right.png,images/stop_right.png,right,0,right,1,0.3608582,None,,,,,,,,,,,,,,,,,1,4,12,5,,,,,184.1454246,,,,,,,,,,,,184.1329481,184.1454246,184.3791988,184.3913343,184.3972939,184.3972939,184.5471933,184.7645882,,,,,0.3608582,None,0.15,,,,,184.3972939,,,,,,,,,,,,,,,,,,,right,1,0.3608582,None,,,,,,,,P002,25,female,1,2026-01-18_16h35.38.433,SST2,2024.02.04,59.92265184,2026-01-18 16h36.00.359619 +0530
,13,5,1,,,,images/go_right.png,images/stop_right.png,right,0,right,1,0.4280389,None,,,,,,,,,,,,,,,,,1,5,13,6,,,,,184.7786773,,,,,,,,,,,,184.764735,184.7786773,185.0125264,185.0244322,185.0304051,185.0304051,185.1805237,185.464572,,,,,0.4280389,None,0.15,,,,,185.0304051,,,,,,,,,,,,,,,,,,,right,1,0.4280389,None,,,,,,,,P002,25,female,1,2026-01-18_16h35.38.433,SST2,2024.02.04,59.92265184,2026-01-18 16h36.00.359619 +0530
,14,6,1,,,,images/go_left.png,images/stop_left.png,left,0,left,1,0.3942232,None,,,,,,,,,,,,,,,,,1,6,14,0,,,,,185.4785561,,,,,,,,,,,,185.4647215,185.4785561,185.7124754,185.7253271,185.7306452,185.7306452,185.8803572,186.1311859,,,,,0.3942232,None,0.15,,,,,185.7306452,,,,,,,,,,,,,,,,,,,left,1,0.3942232,None,,,,,,,,P002,25,female,1,2026-01-18_16h35.38.433,SST2,2024.02.04,59.92265184,2026-01-18 16h36.00.359619 +0530
,15,7,1,,,,images/go_right.png,images/stop_right.png,None,1,None,1,,,,,,,,,,,,,,,,,,,1,7,15,7,,,,,186.1451927,,,,,,,,,,,,186.1313549,186.1451927,186.3791181,186.3915736,186.3969474,186.3969474,186.5480343,187.7965887,,,,,None,1,0.2,,,,,186.3969474,187.6461825,187.6461825,187.8115307,,,,,,,,,,,,,,,,None,1,,,,,,,,,,P002,25,female,1,2026-01-18_16h35.38.433,SST2,2024.02.04,59.92265184,2026-01-18 16h36.00.359619 +0530
,16,0,2,,,,images/go_left.png,images/stop_left.png,None,1,left,0,0.4540405,None,,,,,,,,,,,,,,,,,2,0,16,3,,,,,187.8115307,,,,,,,,,,,,187.7967811,187.8115307,188.0455167,188.0609738,188.0660507,188.0660507,188.2477855,188.5320614,,,,,None,0,0.15,,,,,188.0660507,,,,,,,,,,,,,,,,,,,left,0,0.4540405,None,,,,,,,,P002,25,female,1,2026-01-18_16h35.38.433,SST2,2024.02.04,59.92265184,2026-01-18 16h36.00.359619 +0530
,17,1,2,,,,images/go_right.png,images/stop_right.png,None,1,right,0,0.4101428,None,,,,,,,,,,,,,,,,,2,1,17,7,,,,,188.5448652,,,,,,,,,,,,188.5323353,188.5448652,188.778731,188.7897655,188.796593,188.796593,188.9477563,189.2155164,,,,,None,0,0.1,,,,,188.796593,,,,,,,,,,,,,,,,,,,right,0,0.4101428,None,,,,,,,,P002,25,female,1,2026-01-18_16h35.38.433,SST2,2024.02.04,59.92265184,2026-01-18 16h36.00.359619 +0530
,18,2,2,,,,images/go_left.png,images/stop_left.png,left,0,left,1,0.4378582,None,,,,,,,,,,,,,,,,,2,2,18,0,,,,,189.2279827,,,,,,,,,,,,189.2158139,189.2279827,189.4619759,189.4730358,189.4798444,189.4798444,189.5797958,189.9305961,,,,,0.4378582,None,0.1,,,,,189.4798444,,,,,,,,,,,,,,,,,,,left,1,0.4378582,None,,,,,,,,P002,25,female,1,2026-01-18_16h35.38.433,SST2,2024.02.04,59.92265184,2026-01-18 16h36.00.359619 +0530
,19,3,2,,,,images/go_left.png,images/stop_left.png,left,0,left,1,0.4420676,None,,,,,,,,,,,,,,,,,2,3,19,1,,,,,189.9446577,,,,,,,,,,,,189.9307375,189.9446577,190.1785628,190.1905531,190.1964286,190.1964286,190.2964102,190.6471481,,,,,0.4420676,None,0.1,,,,,190.1964286,,,,,,,,,,,,,,,,,,,left,1,0.4420676,None,,,,,,,,P002,25,female,1,2026-01-18_16h35.38.433,SST2,2024.02.04,59.92265184,2026-01-18 16h36.00.359619 +0530
,20,4,2,,,,images/go_right.png,images/stop_right.png,right,0,right,1,0.424961,None,,,,,,,,,,,,,,,,,2,4,20,4,,,,,190.6612653,,,,,,,,,,,,190.6472992,190.6612653,190.8950922,190.9104217,190.915736,190.915736,191.0129565,191.3471904,,,,,0.424961,None,0.1,,,,,190.915736,,,,,,,,,,,,,,,,,,,right,1,0.424961,None,,,,,,,,P002,25,female,1,2026-01-18_16h35.38.433,SST2,2024.02.04,59.92265184,2026-01-18 16h36.00.359619 +0530
,21,5,2,,,,images/go_left.png,images/stop_left.png,left,0,left,1,0.3883986,None,,,,,,,,,,,,,,,,,2,5,21,2,,,,,191.361092,,,,,,,,,,,,191.3474073,191.361092,191.5950165,191.6085321,191.6139764,191.6139764,191.7130663,192.0136359,,,,,0.3883986,None,0.1,,,,,191.6139764,,,,,,,,,,,,,,,,,,,left,1,0.3883986,None,,,,,,,,P002,25,female,1,2026-01-18_16h35.38.433,SST2,2024.02.04,59.92265184,2026-01-18 16h36.00.359619 +0530
,22,6,2,,,,images/go_right.png,images/stop_right.png,right,0,right,1,0.5096258,None,,,,,,,,,,,,,,,,,2,6,22,5,,,,,192.0278134,,,,,,,,,,,,192.0137735,192.0278134,192.2616578,192.2740016,192.2793368,192.2793368,192.3794781,192.7970537,,,,,0.5096258,None,0.1,,,,,192.2793368,,,,,,,,,,,,,,,,,,,right,1,0.5096258,None,,,,,,,,P002,25,female,1,2026-01-18_16h35.38.433,SST2,2024.02.04,59.92265184,2026-01-18 16h36.00.359619 +0530
,23,7,2,,,,images/go_right.png,images/stop_right.png,right,0,right,1,0.436268,None,,,,,,,,,,,,,,,,,2,7,23,6,,,,,192.8110229,,,,,,,,,,,,192.7972449,192.8110229,193.044793,193.0568729,193.0627603,193.0627603,193.1628742,193.5134209,,,,,0.436268,None,0.1,,,,,193.0627603,,,,,,,,,,,,,,,,,,,right,1,0.436268,None,,,,,,,,P002,25,female,1,2026-01-18_16h35.38.433,SST2,2024.02.04,59.92265184,2026-01-18 16h36.00.359619 +0530
,24,0,3,,,,images/go_right.png,images/stop_right.png,right,0,right,1,0.4116929,None,,,,,,,,,,,,,,,,,3,0,24,5,,,,,193.5275363,,,,,,,,,,,,193.513559,193.5275363,193.7613802,193.7734209,193.7793201,193.7793201,193.8791504,194.1967134,,,,,0.4116929,None,0.1,,,,,193.7793201,,,,,,,,,,,,,,,,,,,right,1,0.4116929,None,,,,,,,,P002,25,female,1,2026-01-18_16h35.38.433,SST2,2024.02.04,59.92265184,2026-01-18 16h36.00.359619 +0530
,25,1,3,,,,images/go_left.png,images/stop_left.png,left,0,left,1,0.430871,None,,,,,,,,,,,,,,,,,3,1,25,1,,,,,194.2108381,,,,,,,,,,,,194.1968495,194.2108381,194.4447488,194.457043,194.4626016,194.4626016,194.5626718,194.8967506,,,,,0.430871,None,0.1,,,,,194.4626016,,,,,,,,,,,,,,,,,,,left,1,0.430871,None,,,,,,,,P002,25,female,1,2026-01-18_16h35.38.433,SST2,2024.02.04,59.92265184,2026-01-18 16h36.00.359619 +0530
,26,2,3,,,,images/go_left.png,images/stop_left.png,left,0,left,1,0.4419207,None,,,,,,,,,,,,,,,,,3,2,26,2,,,,,194.9106591,,,,,,,,,,,,194.8968896,194.9106591,195.1446219,195.1566662,195.1624862,195.1624862,195.2626716,195.6130954,,,,,0.4419207,None,0.1,,,,,195.1624862,,,,,,,,,,,,,,,,,,,left,1,0.4419207,None,,,,,,,,P002,25,female,1,2026-01-18_16h35.38.433,SST2,2024.02.04,59.92265184,2026-01-18 16h36.00.359619 +0530
,27,3,3,,,,images/go_right.png,images/stop_right.png,right,0,right,1,0.5810425,None,,,,,,,,,,,,,,,,,3,3,27,6,,,,,195.6272532,,,,,,,,,,,,195.6132466,195.6272532,195.8611431,195.8735592,195.8789206,195.8789206,195.9789134,196.4630868,,,,,0.5810425,None,0.1,,,,,195.8789206,,,,,,,,,,,,,,,,,,,right,1,0.5810425,None,,,,,,,,P002,25,female,1,2026-01-18_16h35.38.433,SST2,2024.02.04,59.92265184,2026-01-18 16h36.00.359619 +0530
,28,4,3,,,,images/go_left.png,images/stop_left.png,None,1,None,1,,,,,,,,,,,,,,,,,,,3,4,28,3,,,,,196.4771943,,,,,,,,,,,,196.4632272,196.4771943,196.7110933,196.7234608,196.7286982,196.7286982,196.8300804,198.0785713,,,,,None,1,0.15,,,,,196.7286982,197.9780872,197.9780872,198.0937627,,,,,,,,,,,,,,,,None,1,,,,,,,,,,P002,25,female,1,2026-01-18_16h35.38.433,SST2,2024.02.04,59.92265184,2026-01-18 16h36.00.359619 +0530
,29,5,3,,,,images/go_right.png,images/stop_right.png,right,0,right,1,0.4052529,None,,,,,,,,,,,,,,,,,3,5,29,4,,,,,198.0937627,,,,,,,,,,,,198.0787554,198.0937627,198.3274248,198.3398181,198.3453958,198.3453958,198.4787813,198.762825,,,,,0.4052529,None,0.15,,,,,198.3453958,,,,,,,,,,,,,,,,,,,right,1,0.4052529,None,,,,,,,,P002,25,female,1,2026-01-18_16h35.38.433,SST2,2024.02.04,59.92265184,2026-01-18 16h36.00.359619 +0530
,30,6,3,,,,images/go_left.png,images/stop_left.png,left,0,left,1,0.3765951,None,,,,,,,,,,,,,,,,,3,6,30,0,,,,,198.7768593,,,,,,,,,,,,198.7629778,198.7768593,199.0108452,199.0238234,199.0291704,199.0291704,199.1787169,199.4127362,,,,,0.3765951,None,0.15,,,,,199.0291704,,,,,,,,,,,,,,,,,,,left,1,0.3765951,None,,,,,,,,P002,25,female,1,2026-01-18_16h35.38.433,SST2,2024.02.04,59.92265184,2026-01-18 16h36.00.359619 +0530
,31,7,3,,,,images/go_right.png,images/stop_right.png,None,1,None,1,,,,,,,,,,,,,,,,,,,3,7,31,7,,,,,199.4267353,,,,,,,,,,,,199.4129262,199.4267353,199.6607242,199.6739757,199.6791483,199.6791483,199.8298337,201.0782484,,,,,None,1,0.2,,,,,199.6791483,200.9278289,200.9278289,201.0934283,,,,,,,,,,,,,,,,None,1,,,,,,,,,,P002,25,female,1,2026-01-18_16h35.38.433,SST2,2024.02.04,59.92265184,2026-01-18 16h36.00.359619 +0530
,32,0,4,,,,images/go_left.png,images/stop_left.png,left,0,left,1,0.4377301,None,,,,,,,,,,,,,,,,,4,0,32,0,,,,,201.0934283,,,,,,,,,,,,201.07848,201.0934283,201.3272182,201.3393565,201.3450198,201.3450198,201.5283149,201.7957503,,,,,0.4377301,None,0.2,,,,,201.3450198,,,,,,,,,,,,,,,,,,,left,1,0.4377301,None,,,,,,,,P002,25,female,1,2026-01-18_16h35.38.433,SST2,2024.02.04,59.92265184,2026-01-18 16h36.00.359619 +0530
,33,1,4,,,,images/go_right.png,images/stop_right.png,right,0,right,1,0.4062522,None,,,,,,,,,,,,,,,,,4,1,33,5,,,,,201.8098888,,,,,,,,,,,,201.7959126,201.8098888,202.0436616,202.0556203,202.0615188,202.0615188,202.2616236,202.4788006,,,,,0.4062522,None,0.2,,,,,202.0615188,,,,,,,,,,,,,,,,,,,right,1,0.4062522,None,,,,,,,,P002,25,female,1,2026-01-18_16h35.38.433,SST2,2024.02.04,59.92265184,2026-01-18 16h36.00.359619 +0530
,34,2,4,,,,images/go_left.png,images/stop_left.png,left,0,left,1,0.3535,None,,,,,,,,,,,,,,,,,4,2,34,2,,,,,202.493058,,,,,,,,,,,,202.4789406,202.493058,202.7268148,202.7389564,202.744965,202.744965,202.9449149,203.1121839,,,,,0.3535,None,0.2,,,,,202.744965,,,,,,,,,,,,,,,,,,,left,1,0.3535,None,,,,,,,,P002,25,female,1,2026-01-18_16h35.38.433,SST2,2024.02.04,59.92265184,2026-01-18 16h36.00.359619 +0530
,35,3,4,,,,images/go_right.png,images/stop_right.png,right,0,right,1,0.4821169,None,,,,,,,,,,,,,,,,,4,3,35,6,,,,,203.1263637,,,,,,,,,,,,203.1123327,203.1263637,203.3602158,203.3721692,203.3779856,203.3779856,203.5781837,203.8623862,,,,,0.4821169,None,0.2,,,,,203.3779856,,,,,,,,,,,,,,,,,,,right,1,0.4821169,None,,,,,,,,P002,25,female,1,2026-01-18_16h35.38.433,SST2,2024.02.04,59.92265184,2026-01-18 16h36.00.359619 +0530
,36,4,4,,,,images/go_right.png,images/stop_right.png,right,0,right,1,0.4039543,None,,,,,,,,,,,,,,,,,4,4,36,4,,,,,203.8763254,,,,,,,,,,,,203.8625482,203.8763254,204.110133,204.1224369,204.1277592,204.1277592,204.3281289,204.545284,,,,,0.4039543,None,0.2,,,,,204.1277592,,,,,,,,,,,,,,,,,,,right,1,0.4039543,None,,,,,,,,P002,25,female,1,2026-01-18_16h35.38.433,SST2,2024.02.04,59.92265184,2026-01-18 16h36.00.359619 +0530
,37,5,4,,,,images/go_left.png,images/stop_left.png,left,0,left,1,0.3560774,None,,,,,,,,,,,,,,,,,4,5,37,1,,,,,204.5594679,,,,,,,,,,,,204.5454316,204.5594679,204.7933288,204.805027,204.8111967,204.8111967,205.0112359,205.1787856,,,,,0.3560774,None,0.2,,,,,204.8111967,,,,,,,,,,,,,,,,,,,left,1,0.3560774,None,,,,,,,,P002,25,female,1,2026-01-18_16h35.38.433,SST2,2024.02.04,59.92265184,2026-01-18 16h36.00.359619 +0530
,38,6,4,,,,images/go_right.png,images/stop_right.png,None,1,right,0,0.4135192,None,,,,,,,,,,,,,,,,,4,6,38,7,,,,,205.192845,,,,,,,,,,,,205.1789812,205.192845,205.4263701,205.4383762,205.4446557,205.4446557,205.6457986,205.8632123,,,,,None,0,0.15,,,,,205.4446557,,,,,,,,,,,,,,,,,,,right,0,0.4135192,None,,,,,,,,P002,25,female,1,2026-01-18_16h35.38.433,SST2,2024.02.04,59.92265184,2026-01-18 16h36.00.359619 +0530
,39,7,4,,,,images/go_left.png,images/stop_left.png,None,1,left,0,0.4075384,None,,,,,,,,,,,,,,,,,4,7,39,3,,,,,205.876128,,,,,,,,,,,,205.8634349,205.876128,206.1100935,206.122406,206.1276185,206.1276185,206.2789471,206.5463903,,,,,None,0,0.1,,,,,206.1276185,,,,,,,,,,,,,,,,,,,left,0,0.4075384,None,,,,,,,,P002,25,female,1,2026-01-18_16h35.38.433,SST2,2024.02.04,59.92265184,2026-01-18 16h36.00.359619 +0530
,40,0,5,,,,images/go_right.png,images/stop_right.png,right,0,right,1,0.5253468,None,,,,,,,,,,,,,,,,,5,0,40,5,,,,,206.5592937,,,,,,,,,,,,206.5466245,206.5592937,206.7931533,206.8054688,206.8110247,206.8110247,206.9110368,207.3452947,,,,,0.5253468,None,0.1,,,,,206.8110247,,,,,,,,,,,,,,,,,,,right,1,0.5253468,None,,,,,,,,P002,25,female,1,2026-01-18_16h35.38.433,SST2,2024.02.04,59.92265184,2026-01-18 16h36.00.359619 +0530
,41,1,5,,,,images/go_right.png,images/stop_right.png,None,1,None,1,,,,,,,,,,,,,,,,,,,5,1,41,7,,,,,207.3592487,,,,,,,,,,,,207.34544,207.3592487,207.5929352,207.6048033,207.6108365,207.6108365,207.7119584,208.9607318,,,,,None,1,0.15,,,,,207.6108365,208.8602572,208.8602572,208.9756438,,,,,,,,,,,,,,,,None,1,,,,,,,,,,P002,25,female,1,2026-01-18_16h35.38.433,SST2,2024.02.04,59.92265184,2026-01-18 16h36.00.359619 +0530
,42,2,5,,,,images/go_right.png,images/stop_right.png,right,0,right,1,0.428625,None,,,,,,,,,,,,,,,,,5,2,42,6,,,,,208.9756438,,,,,,,,,,,,208.9609456,208.9756438,209.2094127,209.2218815,209.2271322,209.2271322,209.3607136,209.6613971,,,,,0.428625,None,0.15,,,,,209.2271322,,,,,,,,,,,,,,,,,,,right,1,0.428625,None,,,,,,,,P002,25,female,1,2026-01-18_16h35.38.433,SST2,2024.02.04,59.92265184,2026-01-18 16h36.00.359619 +0530
,43,3,5,,,,images/go_left.png,images/stop_left.png,None,1,left,0,0.2701255,None,,,,,,,,,,,,,,,,,5,3,43,3,,,,,209.6755028,,,,,,,,,,,,209.6615475,209.6755028,209.9093738,209.9216178,209.9270315,209.9270315,210.0783858,210.2124643,,,,,None,0,0.1,,,,,209.9270315,,,,,,,,,,,,,,,,,,,left,0,0.2701255,None,,,,,,,,P002,25,female,1,2026-01-18_16h35.38.433,SST2,2024.02.04,59.92265184,2026-01-18 16h36.00.359619 +0530
,44,4,5,,,,images/go_left.png,images/stop_left.png,left,0,left,1,0.4157699,None,,,,,,,,,,,,,,,,,5,4,44,2,,,,,210.225424,,,,,,,,,,,,210.2126657,210.225424,210.459441,210.472675,210.4779023,210.4779023,210.577308,210.8947639,,,,,0.4157699,None,0.1,,,,,210.4779023,,,,,,,,,,,,,,,,,,,left,1,0.4157699,None,,,,,,,,P002,25,female,1,2026-01-18_16h35.38.433,SST2,2024.02.04,59.92265184,2026-01-18 16h36.00.359619 +0530
,45,5,5,,,,images/go_right.png,images/stop_right.png,right,0,right,1,0.3751703,None,,,,,,,,,,,,,,,,,5,5,45,4,,,,,210.9086812,,,,,,,,,,,,210.8949771,210.9086812,211.1425639,211.1547819,211.1604625,211.1604625,211.2605891,211.544418,,,,,0.3751703,None,0.1,,,,,211.1604625,,,,,,,,,,,,,,,,,,,right,1,0.3751703,None,,,,,,,,P002,25,female,1,2026-01-18_16h35.38.433,SST2,2024.02.04,59.92265184,2026-01-18 16h36.00.359619 +0530
,46,6,5,,,,images/go_left.png,images/stop_left.png,left,0,left,1,0.3300098,None,,,,,,,,,,,,,,,,,5,6,46,1,,,,,211.5587042,,,,,,,,,,,,211.5445667,211.5587042,211.7923568,211.8048301,211.8103721,211.8103721,211.9104688,212.1444373,,,,,0.3300098,None,0.1,,,,,211.8103721,,,,,,,,,,,,,,,,,,,left,1,0.3300098,None,,,,,,,,P002,25,female,1,2026-01-18_16h35.38.433,SST2,2024.02.04,59.92265184,2026-01-18 16h36.00.359619 +0530
,47,7,5,,,,images/go_left.png,images/stop_left.png,left,0,left,1,0.3722023,None,,,,,,,,,,,,,,,,,5,7,47,0,,,,,212.1585954,,,,,,,,,,,,212.1445989,212.1585954,212.3923479,212.4043446,212.4102742,212.4102742,212.51032,212.7944476,,,,,0.3722023,None,0.1,,,,,212.4102742,,,,,,,,,,,,,,,,,,,left,1,0.3722023,None,,,,,,,,P002,25,female,1,2026-01-18_16h35.38.433,SST2,2024.02.04,59.92265184,2026-01-18 16h36.00.359619 +0530
,48,0,6,,,,images/go_left.png,images/stop_left.png,left,0,left,1,0.3343536,None,,,,,,,,,,,,,,,,,6,0,48,2,,,,,212.8084177,,,,,,,,,,,,212.7946028,212.8084177,213.0424084,213.0549294,213.0602183,213.0602183,213.1602837,213.4108339,,,,,0.3343536,None,0.1,,,,,213.0602183,,,,,,,,,,,,,,,,,,,left,1,0.3343536,None,,,,,,,,P002,25,female,1,2026-01-18_16h35.38.433,SST2,2024.02.04,59.92265184,2026-01-18 16h36.00.359619 +0530
,49,1,6,,,,images/go_left.png,images/stop_left.png,left,0,left,1,0.3483499,None,,,,,,,,,,,,,,,,,6,1,49,1,,,,,213.425021,,,,,,,,,,,,213.4109734,213.425021,213.6589506,213.6711513,213.6766222,213.6766222,213.7766663,214.0273615,,,,,0.3483499,None,0.1,,,,,213.6766222,,,,,,,,,,,,,,,,,,,left,1,0.3483499,None,,,,,,,,P002,25,female,1,2026-01-18_16h35.38.433,SST2,2024.02.04,59.92265184,2026-01-18 16h36.00.359619 +0530
,50,2,6,,,,images/go_right.png,images/stop_right.png,None,1,None,1,,,,,,,,,,,,,,,,,,,6,2,50,7,,,,,214.0417067,,,,,,,,,,,,214.0275355,214.0417067,214.2754083,214.287478,214.2933222,214.2933222,214.3946232,215.6434337,,,,,None,1,0.15,,,,,214.2933222,215.542635,215.542635,215.6582193,,,,,,,,,,,,,,,,None,1,,,,,,,,,,P002,25,female,1,2026-01-18_16h35.38.433,SST2,2024.02.04,59.92265184,2026-01-18 16h36.00.359619 +0530
,51,3,6,,,,images/go_left.png,images/stop_left.png,None,1,None,1,,,,,,,,,,,,,,,,,,,6,3,51,3,,,,,215.6582193,,,,,,,,,,,,215.6437851,215.6582193,215.8919891,215.9035779,215.9099469,215.9099469,216.0610701,217.3098967,,,,,None,1,0.2,,,,,215.9099469,217.1591019,217.1591019,217.3245121,,,,,,,,,,,,,,,,None,1,,,,,,,,,,P002,25,female,1,2026-01-18_16h35.38.433,SST2,2024.02.04,59.92265184,2026-01-18 16h36.00.359619 +0530
,52,4,6,,,,images/go_right.png,images/stop_right.png,right,0,right,1,0.3883353,None,,,,,,,,,,,,,,,,,6,4,52,5,,,,,217.3245121,,,,,,,,,,,,217.3101126,217.3245121,217.5584005,217.5732922,217.5789986,217.5789986,217.7597906,217.9767149,,,,,0.3883353,None,0.2,,,,,217.5789986,,,,,,,,,,,,,,,,,,,right,1,0.3883353,None,,,,,,,,P002,25,female,1,2026-01-18_16h35.38.433,SST2,2024.02.04,59.92265184,2026-01-18 16h36.00.359619 +0530
,53,5,6,,,,images/go_right.png,images/stop_right.png,right,0,left,0,0.2354413,None,,,,,,,,,,,,,,,,,6,5,53,4,,,,,217.9911115,,,,,,,,,,,,217.9768567,217.9911115,218.2249469,218.2378529,218.2431892,218.2431892,218.4430081,218.4937702,,,,,None,None,0.2,,,,,218.2431892,,,,,,,,,,,,,,,,,,,left,0,0.2354413,None,,,,,,,,P002,25,female,1,2026-01-18_16h35.38.433,SST2,2024.02.04,59.92265184,2026-01-18 16h36.00.359619 +0530
,54,6,6,,,,images/go_right.png,images/stop_right.png,right,0,right,1,0.4345441,None,,,,,,,,,,,,,,,,,6,6,54,6,,,,,218.5078735,,,,,,,,,,,,218.4939126,218.5078735,218.7415018,218.7553698,218.7606369,218.7606369,218.9594788,219.2102458,,,,,0.4345441,None,0.2,,,,,218.7606369,,,,,,,,,,,,,,,,,,,right,1,0.4345441,None,,,,,,,,P002,25,female,1,2026-01-18_16h35.38.433,SST2,2024.02.04,59.92265184,2026-01-18 16h36.00.359619 +0530
,55,7,6,,,,images/go_left.png,images/stop_left.png,left,0,left,1,0.3307229,None,,,,,,,,,,,,,,,,,6,7,55,0,,,,,219.2242231,,,,,,,,,,,,219.2103817,219.2242231,219.4580625,219.4703826,219.4758121,219.4758121,219.6762058,219.8101958,,,,,0.3307229,None,0.2,,,,,219.4758121,,,,,,,,,,,,,,,,,,,left,1,0.3307229,None,,,,,,,,P002,25,female,1,2026-01-18_16h35.38.433,SST2,2024.02.04,59.92265184,2026-01-18 16h36.00.359619 +0530
,56,0,7,,,,images/go_left.png,images/stop_left.png,left,0,left,1,0.311801,None,,,,,,,,,,,,,,,,,7,0,56,2,,,,,219.8241334,,,,,,,,,,,,219.8103622,219.8241334,220.0578914,220.0698496,220.0758144,220.0758144,220.275858,220.3932612,,,,,0.311801,None,0.2,,,,,220.0758144,,,,,,,,,,,,,,,,,,,left,1,0.311801,None,,,,,,,,P002,25,female,1,2026-01-18_16h35.38.433,SST2,2024.02.04,59.92265184,2026-01-18 16h36.00.359619 +0530
,57,1,7,,,,images/go_right.png,images/stop_right.png,right,0,right,1,0.2944262,None,,,,,,,,,,,,,,,,,7,1,57,6,,,,,220.4074526,,,,,,,,,,,,220.3934039,220.4074526,220.6413334,220.6537611,220.659361,220.659361,220.8592369,220.9599978,,,,,0.2944262,None,0.2,,,,,220.659361,,,,,,,,,,,,,,,,,,,right,1,0.2944262,None,,,,,,,,P002,25,female,1,2026-01-18_16h35.38.433,SST2,2024.02.04,59.92265184,2026-01-18 16h36.00.359619 +0530
,58,2,7,,,,images/go_right.png,images/stop_right.png,right,0,left,0,0.2887503,None,,,,,,,,,,,,,,,,,7,2,58,4,,,,,220.9740832,,,,,,,,,,,,220.9601343,220.9740832,221.2078921,221.2198075,221.2257691,221.2257691,221.4259034,221.5264658,,,,,None,None,0.2,,,,,221.2257691,,,,,,,,,,,,,,,,,,,left,0,0.2887503,None,,,,,,,,P002,25,female,1,2026-01-18_16h35.38.433,SST2,2024.02.04,59.92265184,2026-01-18 16h36.00.359619 +0530
,59,3,7,,,,images/go_right.png,images/stop_right.png,right,0,right,1,0.3977519,None,,,,,,,,,,,,,,,,,7,3,59,5,,,,,221.5407265,,,,,,,,,,,,221.5266078,221.5407265,221.7745205,221.7873428,221.7927915,221.7927915,221.9924474,222.1931886,,,,,0.3977519,None,0.2,,,,,221.7927915,,,,,,,,,,,,,,,,,,,right,1,0.3977519,None,,,,,,,,P002,25,female,1,2026-01-18_16h35.38.433,SST2,2024.02.04,59.92265184,2026-01-18 16h36.00.359619 +0530
,60,4,7,,,,images/go_left.png,images/stop_left.png,None,1,left,0,0.5078064,None,,,,,,,,,,,,,,,,,7,4,60,3,,,,,222.207294,,,,,,,,,,,,222.1933516,222.207294,222.441105,222.45322,222.459035,222.459035,222.6601937,222.9774443,,,,,None,0,0.15,,,,,222.459035,,,,,,,,,,,,,,,,,,,left,0,0.5078064,None,,,,,,,,P002,25,female,1,2026-01-18_16h35.38.433,SST2,2024.02.04,59.92265184,2026-01-18 16h36.00.359619 +0530
,61,5,7,,,,images/go_right.png,images/stop_right.png,None,1,right,0,0.3467482,None,,,,,,,,,,,,,,,,,7,5,61,7,,,,,222.9905622,,,,,,,,,,,,222.9776834,222.9905622,223.2243703,223.2366796,223.2422306,223.2422306,223.3934053,223.5943066,,,,,None,0,0.1,,,,,223.2422306,,,,,,,,,,,,,,,,,,,right,0,0.3467482,None,,,,,,,,P002,25,female,1,2026-01-18_16h35.38.433,SST2,2024.02.04,59.92265184,2026-01-18 16h36.00.359619 +0530
,62,6,7,,,,images/go_left.png,images/stop_left.png,left,0,left,1,0.3556071,None,,,,,,,,,,,,,,,,,7,6,62,1,,,,,223.6071361,,,,,,,,,,,,223.594539,223.6071361,223.8408305,223.8525121,223.8588998,223.8588998,223.9589034,224.2261605,,,,,0.3556071,None,0.1,,,,,223.8588998,,,,,,,,,,,,,,,,,,,left,1,0.3556071,None,,,,,,,,P002,25,female,1,2026-01-18_16h35.38.433,SST2,2024.02.04,59.92265184,2026-01-18 16h36.00.359619 +0530
,63,7,7,,,,images/go_left.png,images/stop_left.png,left,0,left,1,0.3935319,None,,,,,,,,,,,,,,,,,7,7,63,0,,,,,224.2403278,,,,,,,,,,,,224.2263261,224.2403278,224.4740973,224.4876439,224.4929913,224.4929913,224.5921648,224.8928338,,,,,0.3935319,None,0.1,,,,,224.4929913,,,,,,,,,,,,,,,,,,,left,1,0.3935319,None,,,,,,,,P002,25,female,1,2026-01-18_16h35.38.433,SST2,2024.02.04,59.92265184,2026-01-18 16h36.00.359619 +0530
,,,,,,,,,,,,,,,,,,,,,,,,,,,,,,,,,,,,,,,,,,,,,,,,,,,,,,,,,,,,,,,,,,,,,,,,,,224.901604,224.9066975,224.9066975,226.790679,space,1.8801656,None,,,,,,,,,,,,,,,,,,,,P002,25,female,1,2026-01-18_16h35.38.433,SST2,2024.02.04,59.92265184,2026-01-18 16h36.00.359619 +0530
